#
# Results on Saturday April 04 2020 17:52:56 UTC.
# USER AGENT: Mozilla/5.0 (Android 6.0; Mobile; rv:68.0) Gecko/68.0 Firefox/68.0
# Design number was non-random = 2
#
# Columns below this comment are as follows:
# 1. Time results were received.
# 2. MD5 hash of participant's IP address.
# 3. Controller name.
# 4. Item number.
# 5. Element number.
# 6. Type.
# 7. Group.
# 8. Field name.
# 9. Field value.
1586022777,ea41f6fc3b4db85c4171ab3c30631bfa,Form,0,0,intro,NULL,age,21
1586022777,ea41f6fc3b4db85c4171ab3c30631bfa,Form,0,0,intro,NULL,consent,yes
1586022777,ea41f6fc3b4db85c4171ab3c30631bfa,Form,0,0,intro,NULL,language,English
1586022777,ea41f6fc3b4db85c4171ab3c30631bfa,Form,17,0,filler-i1,NULL,read,yes
1586022777,ea41f6fc3b4db85c4171ab3c30631bfa,Form,9,0,exp-act-no-item3,3,read,yes
1586022777,ea41f6fc3b4db85c4171ab3c30631bfa,Form,3,0,exp-pas-no-item1,1,read,yes
1586022777,ea41f6fc3b4db85c4171ab3c30631bfa,Form,8,0,exp-pas-dis-item2,2,read,yes
1586022777,ea41f6fc3b4db85c4171ab3c30631bfa,Form,14,0,exp-act-dis-item4,4,read,yes
1586022777,ea41f6fc3b4db85c4171ab3c30631bfa,Form,18,0,filler-i2,NULL,read,yes
1586022777,ea41f6fc3b4db85c4171ab3c30631bfa,Form,19,0,filler-i3,NULL,read,yes
1586022777,ea41f6fc3b4db85c4171ab3c30631bfa,Form,21,0,recall,NULL,filler1,je met tout dedans et mixtra fait le reste
1586022777,ea41f6fc3b4db85c4171ab3c30631bfa,Form,21,0,recall,NULL,item1,mes souvenirs sont éternels avec visadel
1586022777,ea41f6fc3b4db85c4171ab3c30631bfa,Form,21,0,recall,NULL,item2,evdan
1586022777,ea41f6fc3b4db85c4171ab3c30631bfa,Form,21,0,recall,NULL,item3,matérialise mes pensées
1586022777,ea41f6fc3b4db85c4171ab3c30631bfa,Form,21,0,recall,NULL,item4,
1586022777,ea41f6fc3b4db85c4171ab3c30631bfa,Form,21,0,recall,NULL,filler2,protop
# Columns below this comment are as follows:
# 1. Time results were received.
# 2. MD5 hash of participant's IP address.
# 3. Controller name.
# 4. Item number.
# 5. Element number.
# 6. Type.
# 7. Group.
# 8. Question (NULL if none).
# 9. Answer.
# 10. Whether or not answer was correct (NULL if N/A).
# 11. Time taken to answer.
1586022777,ea41f6fc3b4db85c4171ab3c30631bfa,Question,24,0,compr-item3,NULL,Quel &eacute;tait le sens du slogan pour l'<b>imprimante</b> ?,Le r&eacute;sultat ressemble de pr&egrave;s &agrave; vos id&eacute;es.,1,6138
1586022777,ea41f6fc3b4db85c4171ab3c30631bfa,Question,22,0,compr-item1,NULL,Quel &eacute;tait le sens du slogan pour l'<b>appareil photo</b> ?,Cet appareil assure la p&eacute;rennit&eacute; des moment immortalis&eacute;s.,1,3927
1586022777,ea41f6fc3b4db85c4171ab3c30631bfa,Question,25,0,compr-item4,NULL,Quel &eacute;tait le sens du slogan pour le <b>v&eacute;lo</b> ?,Ce v&eacute;lo l’emporte sur les autres avec solidit&eacute;.,1,3920
1586022777,ea41f6fc3b4db85c4171ab3c30631bfa,Question,27,0,compr-filler2,NULL,Quel &eacute;tait le sens du slogan pour l'<b>ordinateur portable</b> ?,Gr&acirc;ce &agrave; cet appareil%2C vous serez performant et rapide.,1,3590
1586022777,ea41f6fc3b4db85c4171ab3c30631bfa,Question,23,0,compr-item2,NULL,Quel &eacute;tait le sens du slogan pour le <b>filtre &agrave; eau</b> ?,Cet appareil porte la digne responsabilit&eacute; de l’eau filtr&eacute;.,1,6496
1586022777,ea41f6fc3b4db85c4171ab3c30631bfa,Question,26,0,compr-filler1,NULL,Quel &eacute;tait le sens du slogan pour le <b>mixeur</b> ?,Cet appareil demande peu de travail en plus.,1,6598
1586022777,ea41f6fc3b4db85c4171ab3c30631bfa,Question,28,0,distractor,NULL,Quel est le nombre maximal de mammif&egrave;res marins visibles en m&ecirc;me temps sur un plan de la vid&eacute;o?,Quatre,NULL,7240
1586022777,ea41f6fc3b4db85c4171ab3c30631bfa,Question,32,0,syn-item4,NULL,Quel &eacute;tait le slogan pour le <b>v&eacute;lo</b> ?,Dynaflex conquiert robustement la comp&eacute;tition.,NULL,11060
1586022777,ea41f6fc3b4db85c4171ab3c30631bfa,Question,30,0,syn-item2,NULL,Quel &eacute;tait le slogan pour le <b>filtre &agrave; eau</b> ?,Chaque goutte est fi&egrave;rement garantie par Evpure.,NULL,13688
1586022777,ea41f6fc3b4db85c4171ab3c30631bfa,Question,29,0,syn-item1,NULL,Quel &eacute;tait le slogan pour l'<b>appareil photo</b> ?,Vos souvenirs sont pr&eacute;cieusement conserv&eacute;s par Visadel.,NULL,6205
1586022777,ea41f6fc3b4db85c4171ab3c30631bfa,Question,33,0,syn-filler1,NULL,Quel &eacute;tait le slogan pour le <b>mixeur</b> ?,Je mets tout dedans%2C et Mixtra fait le reste.,NULL,2970
1586022777,ea41f6fc3b4db85c4171ab3c30631bfa,Question,31,0,syn-item3,NULL,Quel &eacute;tait le slogan pour l'<b>imprimante</b> ?,Comtech reproduit pr&eacute;cis&eacute;ment vos pens&eacute;es.,NULL,7880
1586022777,ea41f6fc3b4db85c4171ab3c30631bfa,Question,34,0,syn-filler2,NULL,Quel &eacute;tait le slogan pour l'<b>ordinateur portable</b> ?,Travaillez efficacement et dynamiquement avec Protop.,NULL,4774
# Columns below this comment are as follows:
# 1. Time results were received.
# 2. MD5 hash of participant's IP address.
# 3. Controller name.
# 4. Item number.
# 5. Element number.
# 6. Type.
# 7. Group.
# 8. Field name.
# 9. Field value.
1586022777,ea41f6fc3b4db85c4171ab3c30631bfa,Attitude,35,0,att-item1,NULL,quality,5
1586022777,ea41f6fc3b4db85c4171ab3c30631bfa,Attitude,35,0,att-item1,NULL,likability,5
1586022777,ea41f6fc3b4db85c4171ab3c30631bfa,Attitude,35,0,att-item1,NULL,informativity,3
1586022777,ea41f6fc3b4db85c4171ab3c30631bfa,Attitude,35,0,att-item1,NULL,interest,6
1586022777,ea41f6fc3b4db85c4171ab3c30631bfa,Attitude,35,0,att-item1,NULL,clarity,6
1586022777,ea41f6fc3b4db85c4171ab3c30631bfa,Attitude,37,0,att-item3,NULL,quality,5
1586022777,ea41f6fc3b4db85c4171ab3c30631bfa,Attitude,37,0,att-item3,NULL,likability,5
1586022777,ea41f6fc3b4db85c4171ab3c30631bfa,Attitude,37,0,att-item3,NULL,informativity,2
1586022777,ea41f6fc3b4db85c4171ab3c30631bfa,Attitude,37,0,att-item3,NULL,interest,6
1586022777,ea41f6fc3b4db85c4171ab3c30631bfa,Attitude,37,0,att-item3,NULL,clarity,4
1586022777,ea41f6fc3b4db85c4171ab3c30631bfa,Attitude,38,0,att-item4,NULL,quality,4
1586022777,ea41f6fc3b4db85c4171ab3c30631bfa,Attitude,38,0,att-item4,NULL,likability,4
1586022777,ea41f6fc3b4db85c4171ab3c30631bfa,Attitude,38,0,att-item4,NULL,informativity,3
1586022777,ea41f6fc3b4db85c4171ab3c30631bfa,Attitude,38,0,att-item4,NULL,interest,3
1586022777,ea41f6fc3b4db85c4171ab3c30631bfa,Attitude,38,0,att-item4,NULL,clarity,5
1586022777,ea41f6fc3b4db85c4171ab3c30631bfa,Attitude,40,0,att-filler2,NULL,quality,5
1586022777,ea41f6fc3b4db85c4171ab3c30631bfa,Attitude,40,0,att-filler2,NULL,likability,4
1586022777,ea41f6fc3b4db85c4171ab3c30631bfa,Attitude,40,0,att-filler2,NULL,informativity,5
1586022777,ea41f6fc3b4db85c4171ab3c30631bfa,Attitude,40,0,att-filler2,NULL,interest,3
1586022777,ea41f6fc3b4db85c4171ab3c30631bfa,Attitude,40,0,att-filler2,NULL,clarity,5
1586022777,ea41f6fc3b4db85c4171ab3c30631bfa,Attitude,39,0,att-filler1,NULL,quality,6
1586022777,ea41f6fc3b4db85c4171ab3c30631bfa,Attitude,39,0,att-filler1,NULL,likability,5
1586022777,ea41f6fc3b4db85c4171ab3c30631bfa,Attitude,39,0,att-filler1,NULL,informativity,5
1586022777,ea41f6fc3b4db85c4171ab3c30631bfa,Attitude,39,0,att-filler1,NULL,interest,5
1586022777,ea41f6fc3b4db85c4171ab3c30631bfa,Attitude,39,0,att-filler1,NULL,clarity,6
1586022777,ea41f6fc3b4db85c4171ab3c30631bfa,Attitude,41,0,att-filler3,NULL,quality,6
1586022777,ea41f6fc3b4db85c4171ab3c30631bfa,Attitude,41,0,att-filler3,NULL,likability,6
1586022777,ea41f6fc3b4db85c4171ab3c30631bfa,Attitude,41,0,att-filler3,NULL,informativity,3
1586022777,ea41f6fc3b4db85c4171ab3c30631bfa,Attitude,41,0,att-filler3,NULL,interest,4
1586022777,ea41f6fc3b4db85c4171ab3c30631bfa,Attitude,41,0,att-filler3,NULL,clarity,4
1586022777,ea41f6fc3b4db85c4171ab3c30631bfa,Attitude,36,0,att-item2,NULL,quality,5
1586022777,ea41f6fc3b4db85c4171ab3c30631bfa,Attitude,36,0,att-item2,NULL,likability,4
1586022777,ea41f6fc3b4db85c4171ab3c30631bfa,Attitude,36,0,att-item2,NULL,informativity,3
1586022777,ea41f6fc3b4db85c4171ab3c30631bfa,Attitude,36,0,att-item2,NULL,interest,3
1586022777,ea41f6fc3b4db85c4171ab3c30631bfa,Attitude,36,0,att-item2,NULL,clarity,5
#
# Results on Saturday April 04 2020 18:59:02 UTC.
# USER AGENT: Mozilla/5.0 (Windows NT 10.0; Win64; x64; rv:74.0) Gecko/20100101 Firefox/74.0
# Design number was non-random = 3
#
# Columns below this comment are as follows:
# 1. Time results were received.
# 2. MD5 hash of participant's IP address.
# 3. Controller name.
# 4. Item number.
# 5. Element number.
# 6. Type.
# 7. Group.
# 8. Field name.
# 9. Field value.
1586026743,1a8e269d9c9f8085f6dd67acbfc90a4b,Form,0,0,intro,NULL,age,22
1586026743,1a8e269d9c9f8085f6dd67acbfc90a4b,Form,0,0,intro,NULL,consent,yes
1586026743,1a8e269d9c9f8085f6dd67acbfc90a4b,Form,0,0,intro,NULL,language,English
1586026743,1a8e269d9c9f8085f6dd67acbfc90a4b,Form,17,0,filler-i1,NULL,read,yes
1586026743,1a8e269d9c9f8085f6dd67acbfc90a4b,Form,15,0,exp-pas-no-item4,4,read,yes
1586026743,1a8e269d9c9f8085f6dd67acbfc90a4b,Form,5,0,exp-act-no-item2,2,read,yes
1586026743,1a8e269d9c9f8085f6dd67acbfc90a4b,Form,4,0,exp-pas-dis-item1,1,read,yes
1586026743,1a8e269d9c9f8085f6dd67acbfc90a4b,Form,10,0,exp-act-dis-item3,3,read,yes
1586026743,1a8e269d9c9f8085f6dd67acbfc90a4b,Form,18,0,filler-i2,NULL,read,yes
1586026743,1a8e269d9c9f8085f6dd67acbfc90a4b,Form,19,0,filler-i3,NULL,read,yes
1586026743,1a8e269d9c9f8085f6dd67acbfc90a4b,Form,21,0,recall,NULL,filler1,Je mets tout dedans et il fait le reste
1586026743,1a8e269d9c9f8085f6dd67acbfc90a4b,Form,21,0,recall,NULL,item1,Il gardera en lui tous vos meilleurs souvenirs
1586026743,1a8e269d9c9f8085f6dd67acbfc90a4b,Form,21,0,recall,NULL,item2,Nous avons la fierté de vous garantir chaque goutte
1586026743,1a8e269d9c9f8085f6dd67acbfc90a4b,Form,21,0,recall,NULL,item3,Elle fait exactement ce que vous avez imaginé
1586026743,1a8e269d9c9f8085f6dd67acbfc90a4b,Form,21,0,recall,NULL,item4,La compétition est faite pour lui
1586026743,1a8e269d9c9f8085f6dd67acbfc90a4b,Form,21,0,recall,NULL,filler2,Pas de souvenir
# Columns below this comment are as follows:
# 1. Time results were received.
# 2. MD5 hash of participant's IP address.
# 3. Controller name.
# 4. Item number.
# 5. Element number.
# 6. Type.
# 7. Group.
# 8. Question (NULL if none).
# 9. Answer.
# 10. Whether or not answer was correct (NULL if N/A).
# 11. Time taken to answer.
1586026743,1a8e269d9c9f8085f6dd67acbfc90a4b,Question,26,0,compr-filler1,NULL,Quel &eacute;tait le sens du slogan pour le <b>mixeur</b> ?,Cet appareil demande peu de travail en plus.,1,8838
1586026743,1a8e269d9c9f8085f6dd67acbfc90a4b,Question,27,0,compr-filler2,NULL,Quel &eacute;tait le sens du slogan pour l'<b>ordinateur portable</b> ?,Gr&acirc;ce &agrave; cet appareil%2C vous serez performant et rapide.,1,8468
1586026743,1a8e269d9c9f8085f6dd67acbfc90a4b,Question,23,0,compr-item2,NULL,Quel &eacute;tait le sens du slogan pour le <b>filtre &agrave; eau</b> ?,Cet appareil porte la digne responsabilit&eacute; de l’eau filtr&eacute;.,1,8669
1586026743,1a8e269d9c9f8085f6dd67acbfc90a4b,Question,25,0,compr-item4,NULL,Quel &eacute;tait le sens du slogan pour le <b>v&eacute;lo</b> ?,Ce v&eacute;lo l’emporte sur les autres avec solidit&eacute;.,1,10814
1586026743,1a8e269d9c9f8085f6dd67acbfc90a4b,Question,24,0,compr-item3,NULL,Quel &eacute;tait le sens du slogan pour l'<b>imprimante</b> ?,Le r&eacute;sultat ressemble de pr&egrave;s &agrave; vos id&eacute;es.,1,6884
1586026743,1a8e269d9c9f8085f6dd67acbfc90a4b,Question,22,0,compr-item1,NULL,Quel &eacute;tait le sens du slogan pour l'<b>appareil photo</b> ?,Cet appareil assure la p&eacute;rennit&eacute; des moment immortalis&eacute;s.,1,9552
1586026743,1a8e269d9c9f8085f6dd67acbfc90a4b,Question,28,0,distractor,NULL,Quel est le nombre maximal de mammif&egrave;res marins visibles en m&ecirc;me temps sur un plan de la vid&eacute;o?,Quatre,NULL,6131
1586026743,1a8e269d9c9f8085f6dd67acbfc90a4b,Question,31,0,syn-item3,NULL,Quel &eacute;tait le slogan pour l'<b>imprimante</b> ?,Vos pens&eacute;es%2C elles sont pr&eacute;cis&eacute;ment reproduites par Comtech.,NULL,16425
1586026743,1a8e269d9c9f8085f6dd67acbfc90a4b,Question,33,0,syn-filler1,NULL,Quel &eacute;tait le slogan pour le <b>mixeur</b> ?,Je mets tout dedans%2C et Mixtra fait le reste.,NULL,11051
1586026743,1a8e269d9c9f8085f6dd67acbfc90a4b,Question,32,0,syn-item4,NULL,Quel &eacute;tait le slogan pour le <b>v&eacute;lo</b> ?,La comp&eacute;tition%2C elle est robustement conquise par Dynaflex.,NULL,8966
1586026743,1a8e269d9c9f8085f6dd67acbfc90a4b,Question,34,0,syn-filler2,NULL,Quel &eacute;tait le slogan pour l'<b>ordinateur portable</b> ?,Travaillez efficacement et dynamiquement avec Protop.,NULL,10067
1586026743,1a8e269d9c9f8085f6dd67acbfc90a4b,Question,30,0,syn-item2,NULL,Quel &eacute;tait le slogan pour le <b>filtre &agrave; eau</b> ?,Chaque goutte est fi&egrave;rement garantie par Evpure.,NULL,8176
1586026743,1a8e269d9c9f8085f6dd67acbfc90a4b,Question,29,0,syn-item1,NULL,Quel &eacute;tait le slogan pour l'<b>appareil photo</b> ?,Vos souvenir%2C ils sont pr&eacute;cieusement conserv&eacute;s par Visadel.,NULL,11156
# Columns below this comment are as follows:
# 1. Time results were received.
# 2. MD5 hash of participant's IP address.
# 3. Controller name.
# 4. Item number.
# 5. Element number.
# 6. Type.
# 7. Group.
# 8. Field name.
# 9. Field value.
1586026743,1a8e269d9c9f8085f6dd67acbfc90a4b,Attitude,40,0,att-filler2,NULL,quality,5
1586026743,1a8e269d9c9f8085f6dd67acbfc90a4b,Attitude,40,0,att-filler2,NULL,likability,4
1586026743,1a8e269d9c9f8085f6dd67acbfc90a4b,Attitude,40,0,att-filler2,NULL,informativity,3
1586026743,1a8e269d9c9f8085f6dd67acbfc90a4b,Attitude,40,0,att-filler2,NULL,interest,3
1586026743,1a8e269d9c9f8085f6dd67acbfc90a4b,Attitude,40,0,att-filler2,NULL,clarity,4
1586026743,1a8e269d9c9f8085f6dd67acbfc90a4b,Attitude,41,0,att-filler3,NULL,quality,6
1586026743,1a8e269d9c9f8085f6dd67acbfc90a4b,Attitude,41,0,att-filler3,NULL,likability,7
1586026743,1a8e269d9c9f8085f6dd67acbfc90a4b,Attitude,41,0,att-filler3,NULL,informativity,3
1586026743,1a8e269d9c9f8085f6dd67acbfc90a4b,Attitude,41,0,att-filler3,NULL,interest,5
1586026743,1a8e269d9c9f8085f6dd67acbfc90a4b,Attitude,41,0,att-filler3,NULL,clarity,3
1586026743,1a8e269d9c9f8085f6dd67acbfc90a4b,Attitude,39,0,att-filler1,NULL,quality,7
1586026743,1a8e269d9c9f8085f6dd67acbfc90a4b,Attitude,39,0,att-filler1,NULL,likability,5
1586026743,1a8e269d9c9f8085f6dd67acbfc90a4b,Attitude,39,0,att-filler1,NULL,informativity,6
1586026743,1a8e269d9c9f8085f6dd67acbfc90a4b,Attitude,39,0,att-filler1,NULL,interest,6
1586026743,1a8e269d9c9f8085f6dd67acbfc90a4b,Attitude,39,0,att-filler1,NULL,clarity,6
1586026743,1a8e269d9c9f8085f6dd67acbfc90a4b,Attitude,35,0,att-item1,NULL,quality,7
1586026743,1a8e269d9c9f8085f6dd67acbfc90a4b,Attitude,35,0,att-item1,NULL,likability,5
1586026743,1a8e269d9c9f8085f6dd67acbfc90a4b,Attitude,35,0,att-item1,NULL,informativity,5
1586026743,1a8e269d9c9f8085f6dd67acbfc90a4b,Attitude,35,0,att-item1,NULL,interest,5
1586026743,1a8e269d9c9f8085f6dd67acbfc90a4b,Attitude,35,0,att-item1,NULL,clarity,6
1586026743,1a8e269d9c9f8085f6dd67acbfc90a4b,Attitude,37,0,att-item3,NULL,quality,7
1586026743,1a8e269d9c9f8085f6dd67acbfc90a4b,Attitude,37,0,att-item3,NULL,likability,5
1586026743,1a8e269d9c9f8085f6dd67acbfc90a4b,Attitude,37,0,att-item3,NULL,informativity,5
1586026743,1a8e269d9c9f8085f6dd67acbfc90a4b,Attitude,37,0,att-item3,NULL,interest,5
1586026743,1a8e269d9c9f8085f6dd67acbfc90a4b,Attitude,37,0,att-item3,NULL,clarity,6
1586026743,1a8e269d9c9f8085f6dd67acbfc90a4b,Attitude,36,0,att-item2,NULL,quality,7
1586026743,1a8e269d9c9f8085f6dd67acbfc90a4b,Attitude,36,0,att-item2,NULL,likability,7
1586026743,1a8e269d9c9f8085f6dd67acbfc90a4b,Attitude,36,0,att-item2,NULL,informativity,6
1586026743,1a8e269d9c9f8085f6dd67acbfc90a4b,Attitude,36,0,att-item2,NULL,interest,6
1586026743,1a8e269d9c9f8085f6dd67acbfc90a4b,Attitude,36,0,att-item2,NULL,clarity,6
1586026743,1a8e269d9c9f8085f6dd67acbfc90a4b,Attitude,38,0,att-item4,NULL,quality,5
1586026743,1a8e269d9c9f8085f6dd67acbfc90a4b,Attitude,38,0,att-item4,NULL,likability,4
1586026743,1a8e269d9c9f8085f6dd67acbfc90a4b,Attitude,38,0,att-item4,NULL,informativity,4
1586026743,1a8e269d9c9f8085f6dd67acbfc90a4b,Attitude,38,0,att-item4,NULL,interest,3
1586026743,1a8e269d9c9f8085f6dd67acbfc90a4b,Attitude,38,0,att-item4,NULL,clarity,4
#
# Results on Sunday April 05 2020 10:39:06 UTC.
# USER AGENT: Mozilla/5.0 (iPhone; CPU iPhone OS 13_1_2 like Mac OS X) AppleWebKit/605.1.15 (KHTML, like Gecko) Version/13.0.1 Mobile/15E148 Safari/604.1
# Design number was non-random = 4
#
# Columns below this comment are as follows:
# 1. Time results were received.
# 2. MD5 hash of participant's IP address.
# 3. Controller name.
# 4. Item number.
# 5. Element number.
# 6. Type.
# 7. Group.
# 8. Field name.
# 9. Field value.
1586083146,93552f52a71e67168caa05cf4b201843,Form,0,0,intro,NULL,age,23
1586083146,93552f52a71e67168caa05cf4b201843,Form,0,0,intro,NULL,consent,yes
1586083146,93552f52a71e67168caa05cf4b201843,Form,0,0,intro,NULL,language,English
1586083146,93552f52a71e67168caa05cf4b201843,Form,17,0,filler-i1,NULL,read,yes
1586083146,93552f52a71e67168caa05cf4b201843,Form,6,0,exp-act-dis-item2,2,read,yes
1586083146,93552f52a71e67168caa05cf4b201843,Form,16,0,exp-pas-dis-item4,4,read,yes
1586083146,93552f52a71e67168caa05cf4b201843,Form,1,0,exp-act-no-item1,1,read,yes
1586083146,93552f52a71e67168caa05cf4b201843,Form,11,0,exp-pas-no-item3,3,read,yes
1586083146,93552f52a71e67168caa05cf4b201843,Form,18,0,filler-i2,NULL,read,yes
1586083146,93552f52a71e67168caa05cf4b201843,Form,19,0,filler-i3,NULL,read,yes
1586083146,93552f52a71e67168caa05cf4b201843,Form,21,0,recall,NULL,filler1,Mettez tout et le mixeur s’occupe de tout 
1586083146,93552f52a71e67168caa05cf4b201843,Form,21,0,recall,NULL,item1,Il garde en mémoire vos souvenirs 
1586083146,93552f52a71e67168caa05cf4b201843,Form,21,0,recall,NULL,item2,
1586083146,93552f52a71e67168caa05cf4b201843,Form,21,0,recall,NULL,item3,Mettre de donner corps à vos idées 
1586083146,93552f52a71e67168caa05cf4b201843,Form,21,0,recall,NULL,item4,Pour la competition 
1586083146,93552f52a71e67168caa05cf4b201843,Form,21,0,recall,NULL,filler2,Pour le travail 
# Columns below this comment are as follows:
# 1. Time results were received.
# 2. MD5 hash of participant's IP address.
# 3. Controller name.
# 4. Item number.
# 5. Element number.
# 6. Type.
# 7. Group.
# 8. Question (NULL if none).
# 9. Answer.
# 10. Whether or not answer was correct (NULL if N/A).
# 11. Time taken to answer.
1586083146,93552f52a71e67168caa05cf4b201843,Question,26,0,compr-filler1,NULL,Quel &eacute;tait le sens du slogan pour le <b>mixeur</b> ?,Cet appareil a de multiples fonctions.,0,11615
1586083146,93552f52a71e67168caa05cf4b201843,Question,25,0,compr-item4,NULL,Quel &eacute;tait le sens du slogan pour le <b>v&eacute;lo</b> ?,Ce v&eacute;lo l’emporte sur les autres avec solidit&eacute;.,1,10157
1586083146,93552f52a71e67168caa05cf4b201843,Question,23,0,compr-item2,NULL,Quel &eacute;tait le sens du slogan pour le <b>filtre &agrave; eau</b> ?,Cet appareil abaisse drastiquement le temps de filtrage.,0,11627
1586083146,93552f52a71e67168caa05cf4b201843,Question,27,0,compr-filler2,NULL,Quel &eacute;tait le sens du slogan pour l'<b>ordinateur portable</b> ?,Gr&acirc;ce &agrave; cet appareil%2C vous pourrez travailler partout.,0,7321
1586083146,93552f52a71e67168caa05cf4b201843,Question,22,0,compr-item1,NULL,Quel &eacute;tait le sens du slogan pour l'<b>appareil photo</b> ?,Cet appareil assure la p&eacute;rennit&eacute; des moment immortalis&eacute;s.,1,8856
1586083146,93552f52a71e67168caa05cf4b201843,Question,24,0,compr-item3,NULL,Quel &eacute;tait le sens du slogan pour l'<b>imprimante</b> ?,Le r&eacute;sultat ressemble de pr&egrave;s &agrave; vos id&eacute;es.,1,9108
1586083146,93552f52a71e67168caa05cf4b201843,Question,28,0,distractor,NULL,Quel est le nombre maximal de mammif&egrave;res marins visibles en m&ecirc;me temps sur un plan de la vid&eacute;o?,Deux,NULL,10193
1586083146,93552f52a71e67168caa05cf4b201843,Question,30,0,syn-item2,NULL,Quel &eacute;tait le slogan pour le <b>filtre &agrave; eau</b> ?,Evpure garantit fi&egrave;rement chaque goutte.,NULL,15171
1586083146,93552f52a71e67168caa05cf4b201843,Question,31,0,syn-item3,NULL,Quel &eacute;tait le slogan pour l'<b>imprimante</b> ?,Comtech reproduit pr&eacute;cis&eacute;ment vos pens&eacute;es.,NULL,6692
1586083146,93552f52a71e67168caa05cf4b201843,Question,33,0,syn-filler1,NULL,Quel &eacute;tait le slogan pour le <b>mixeur</b> ?,Je mets tout dedans%2C et Mixtra fait le reste.,NULL,7358
1586083146,93552f52a71e67168caa05cf4b201843,Question,29,0,syn-item1,NULL,Quel &eacute;tait le slogan pour l'<b>appareil photo</b> ?,Visadel conserve pr&eacute;cieusement vos souvenirs.,NULL,5960
1586083146,93552f52a71e67168caa05cf4b201843,Question,34,0,syn-filler2,NULL,Quel &eacute;tait le slogan pour l'<b>ordinateur portable</b> ?,Avec Protop%2C travaillez efficacement et dynamiquement.,NULL,7161
1586083146,93552f52a71e67168caa05cf4b201843,Question,32,0,syn-item4,NULL,Quel &eacute;tait le slogan pour le <b>v&eacute;lo</b> ?,La comp&eacute;tition est robustement conquise par Dynaflex.,NULL,4342
# Columns below this comment are as follows:
# 1. Time results were received.
# 2. MD5 hash of participant's IP address.
# 3. Controller name.
# 4. Item number.
# 5. Element number.
# 6. Type.
# 7. Group.
# 8. Field name.
# 9. Field value.
1586083146,93552f52a71e67168caa05cf4b201843,Attitude,37,0,att-item3,NULL,quality,6
1586083146,93552f52a71e67168caa05cf4b201843,Attitude,37,0,att-item3,NULL,likability,5
1586083146,93552f52a71e67168caa05cf4b201843,Attitude,37,0,att-item3,NULL,informativity,4
1586083146,93552f52a71e67168caa05cf4b201843,Attitude,37,0,att-item3,NULL,interest,4
1586083146,93552f52a71e67168caa05cf4b201843,Attitude,37,0,att-item3,NULL,clarity,5
1586083146,93552f52a71e67168caa05cf4b201843,Attitude,35,0,att-item1,NULL,quality,6
1586083146,93552f52a71e67168caa05cf4b201843,Attitude,35,0,att-item1,NULL,likability,6
1586083146,93552f52a71e67168caa05cf4b201843,Attitude,35,0,att-item1,NULL,informativity,4
1586083146,93552f52a71e67168caa05cf4b201843,Attitude,35,0,att-item1,NULL,interest,4
1586083146,93552f52a71e67168caa05cf4b201843,Attitude,35,0,att-item1,NULL,clarity,5
1586083146,93552f52a71e67168caa05cf4b201843,Attitude,39,0,att-filler1,NULL,quality,5
1586083146,93552f52a71e67168caa05cf4b201843,Attitude,39,0,att-filler1,NULL,likability,4
1586083146,93552f52a71e67168caa05cf4b201843,Attitude,39,0,att-filler1,NULL,informativity,5
1586083146,93552f52a71e67168caa05cf4b201843,Attitude,39,0,att-filler1,NULL,interest,5
1586083146,93552f52a71e67168caa05cf4b201843,Attitude,39,0,att-filler1,NULL,clarity,5
1586083146,93552f52a71e67168caa05cf4b201843,Attitude,41,0,att-filler3,NULL,quality,3
1586083146,93552f52a71e67168caa05cf4b201843,Attitude,41,0,att-filler3,NULL,likability,4
1586083146,93552f52a71e67168caa05cf4b201843,Attitude,41,0,att-filler3,NULL,informativity,3
1586083146,93552f52a71e67168caa05cf4b201843,Attitude,41,0,att-filler3,NULL,interest,3
1586083146,93552f52a71e67168caa05cf4b201843,Attitude,41,0,att-filler3,NULL,clarity,4
1586083146,93552f52a71e67168caa05cf4b201843,Attitude,40,0,att-filler2,NULL,quality,5
1586083146,93552f52a71e67168caa05cf4b201843,Attitude,40,0,att-filler2,NULL,likability,5
1586083146,93552f52a71e67168caa05cf4b201843,Attitude,40,0,att-filler2,NULL,informativity,5
1586083146,93552f52a71e67168caa05cf4b201843,Attitude,40,0,att-filler2,NULL,interest,4
1586083146,93552f52a71e67168caa05cf4b201843,Attitude,40,0,att-filler2,NULL,clarity,5
1586083146,93552f52a71e67168caa05cf4b201843,Attitude,36,0,att-item2,NULL,quality,4
1586083146,93552f52a71e67168caa05cf4b201843,Attitude,36,0,att-item2,NULL,likability,4
1586083146,93552f52a71e67168caa05cf4b201843,Attitude,36,0,att-item2,NULL,informativity,5
1586083146,93552f52a71e67168caa05cf4b201843,Attitude,36,0,att-item2,NULL,interest,4
1586083146,93552f52a71e67168caa05cf4b201843,Attitude,36,0,att-item2,NULL,clarity,4
1586083146,93552f52a71e67168caa05cf4b201843,Attitude,38,0,att-item4,NULL,quality,5
1586083146,93552f52a71e67168caa05cf4b201843,Attitude,38,0,att-item4,NULL,likability,5
1586083146,93552f52a71e67168caa05cf4b201843,Attitude,38,0,att-item4,NULL,informativity,5
1586083146,93552f52a71e67168caa05cf4b201843,Attitude,38,0,att-item4,NULL,interest,4
1586083146,93552f52a71e67168caa05cf4b201843,Attitude,38,0,att-item4,NULL,clarity,4
#
# Results on Sunday April 05 2020 12:37:43 UTC.
# USER AGENT: Mozilla/5.0 (Windows NT 10.0; Win64; x64) AppleWebKit/537.36 (KHTML, like Gecko) Chrome/80.0.3987.149 Safari/537.36
# Design number was non-random = 5
#
# Columns below this comment are as follows:
# 1. Time results were received.
# 2. MD5 hash of participant's IP address.
# 3. Controller name.
# 4. Item number.
# 5. Element number.
# 6. Type.
# 7. Group.
# 8. Field name.
# 9. Field value.
1586090263,ac49ad5b0e4ca52be6bca6f573fe0e36,Form,0,0,intro,NULL,age,22
1586090263,ac49ad5b0e4ca52be6bca6f573fe0e36,Form,0,0,intro,NULL,consent,yes
1586090263,ac49ad5b0e4ca52be6bca6f573fe0e36,Form,0,0,intro,NULL,language,English
1586090263,ac49ad5b0e4ca52be6bca6f573fe0e36,Form,17,0,filler-i1,NULL,read,yes
1586090263,ac49ad5b0e4ca52be6bca6f573fe0e36,Form,12,0,exp-pas-dis-item3,3,read,yes
1586090263,ac49ad5b0e4ca52be6bca6f573fe0e36,Form,2,0,exp-act-dis-item1,1,read,yes
1586090263,ac49ad5b0e4ca52be6bca6f573fe0e36,Form,7,0,exp-pas-no-item2,2,read,yes
1586090263,ac49ad5b0e4ca52be6bca6f573fe0e36,Form,13,0,exp-act-no-item4,4,read,yes
1586090263,ac49ad5b0e4ca52be6bca6f573fe0e36,Form,18,0,filler-i2,NULL,read,yes
1586090263,ac49ad5b0e4ca52be6bca6f573fe0e36,Form,19,0,filler-i3,NULL,read,yes
1586090263,ac49ad5b0e4ca52be6bca6f573fe0e36,Form,21,0,recall,NULL,filler1,Je mets tout et je laisse Mixtra faire
1586090263,ac49ad5b0e4ca52be6bca6f573fe0e36,Form,21,0,recall,NULL,item1,garde vos souvenirs
1586090263,ac49ad5b0e4ca52be6bca6f573fe0e36,Form,21,0,recall,NULL,item2,Chaque goutte est filtrée par ...
1586090263,ac49ad5b0e4ca52be6bca6f573fe0e36,Form,21,0,recall,NULL,item3,encre...
1586090263,ac49ad5b0e4ca52be6bca6f573fe0e36,Form,21,0,recall,NULL,item4,Là où commence la compétition
1586090263,ac49ad5b0e4ca52be6bca6f573fe0e36,Form,21,0,recall,NULL,filler2,Travaillez sereinement avec protop
# Columns below this comment are as follows:
# 1. Time results were received.
# 2. MD5 hash of participant's IP address.
# 3. Controller name.
# 4. Item number.
# 5. Element number.
# 6. Type.
# 7. Group.
# 8. Question (NULL if none).
# 9. Answer.
# 10. Whether or not answer was correct (NULL if N/A).
# 11. Time taken to answer.
1586090263,ac49ad5b0e4ca52be6bca6f573fe0e36,Question,22,0,compr-item1,NULL,Quel &eacute;tait le sens du slogan pour l'<b>appareil photo</b> ?,Cet appareil assure la p&eacute;rennit&eacute; des moment immortalis&eacute;s.,1,10153
1586090263,ac49ad5b0e4ca52be6bca6f573fe0e36,Question,27,0,compr-filler2,NULL,Quel &eacute;tait le sens du slogan pour l'<b>ordinateur portable</b> ?,Gr&acirc;ce &agrave; cet appareil%2C vous serez performant et rapide.,1,8496
1586090263,ac49ad5b0e4ca52be6bca6f573fe0e36,Question,26,0,compr-filler1,NULL,Quel &eacute;tait le sens du slogan pour le <b>mixeur</b> ?,Cet appareil demande peu de travail en plus.,1,8973
1586090263,ac49ad5b0e4ca52be6bca6f573fe0e36,Question,25,0,compr-item4,NULL,Quel &eacute;tait le sens du slogan pour le <b>v&eacute;lo</b> ?,Ce v&eacute;lo compense son poids par une vitesse accrue.,0,11028
1586090263,ac49ad5b0e4ca52be6bca6f573fe0e36,Question,23,0,compr-item2,NULL,Quel &eacute;tait le sens du slogan pour le <b>filtre &agrave; eau</b> ?,Cet appareil porte la digne responsabilit&eacute; de l’eau filtr&eacute;.,1,5973
1586090263,ac49ad5b0e4ca52be6bca6f573fe0e36,Question,24,0,compr-item3,NULL,Quel &eacute;tait le sens du slogan pour l'<b>imprimante</b> ?,Le r&eacute;sultat a un &eacute;clat surprenant.,0,5888
1586090263,ac49ad5b0e4ca52be6bca6f573fe0e36,Question,28,0,distractor,NULL,Quel est le nombre maximal de mammif&egrave;res marins visibles en m&ecirc;me temps sur un plan de la vid&eacute;o?,Quatre,NULL,16112
1586090263,ac49ad5b0e4ca52be6bca6f573fe0e36,Question,29,0,syn-item1,NULL,Quel &eacute;tait le slogan pour l'<b>appareil photo</b> ?,Vos souvenirs sont pr&eacute;cieusement conserv&eacute;s par Visadel.,NULL,10703
1586090263,ac49ad5b0e4ca52be6bca6f573fe0e36,Question,33,0,syn-filler1,NULL,Quel &eacute;tait le slogan pour le <b>mixeur</b> ?,Je mets tout dedans%2C et Mixtra fait le reste.,NULL,8988
1586090263,ac49ad5b0e4ca52be6bca6f573fe0e36,Question,32,0,syn-item4,NULL,Quel &eacute;tait le slogan pour le <b>v&eacute;lo</b> ?,Dynaflex conquiert robustement la comp&eacute;tition.,NULL,6494
1586090263,ac49ad5b0e4ca52be6bca6f573fe0e36,Question,31,0,syn-item3,NULL,Quel &eacute;tait le slogan pour l'<b>imprimante</b> ?,Comtech reproduit pr&eacute;cis&eacute;ment vos pens&eacute;es.,NULL,5821
1586090263,ac49ad5b0e4ca52be6bca6f573fe0e36,Question,30,0,syn-item2,NULL,Quel &eacute;tait le slogan pour le <b>filtre &agrave; eau</b> ?,Chaque goutte est fi&egrave;rement garantie par Evpure.,NULL,4692
1586090263,ac49ad5b0e4ca52be6bca6f573fe0e36,Question,34,0,syn-filler2,NULL,Quel &eacute;tait le slogan pour l'<b>ordinateur portable</b> ?,Travaillez efficacement et dynamiquement avec Protop.,NULL,7510
# Columns below this comment are as follows:
# 1. Time results were received.
# 2. MD5 hash of participant's IP address.
# 3. Controller name.
# 4. Item number.
# 5. Element number.
# 6. Type.
# 7. Group.
# 8. Field name.
# 9. Field value.
1586090263,ac49ad5b0e4ca52be6bca6f573fe0e36,Attitude,40,0,att-filler2,NULL,quality,4
1586090263,ac49ad5b0e4ca52be6bca6f573fe0e36,Attitude,40,0,att-filler2,NULL,likability,4
1586090263,ac49ad5b0e4ca52be6bca6f573fe0e36,Attitude,40,0,att-filler2,NULL,informativity,2
1586090263,ac49ad5b0e4ca52be6bca6f573fe0e36,Attitude,40,0,att-filler2,NULL,interest,2
1586090263,ac49ad5b0e4ca52be6bca6f573fe0e36,Attitude,40,0,att-filler2,NULL,clarity,4
1586090263,ac49ad5b0e4ca52be6bca6f573fe0e36,Attitude,38,0,att-item4,NULL,quality,1
1586090263,ac49ad5b0e4ca52be6bca6f573fe0e36,Attitude,38,0,att-item4,NULL,likability,1
1586090263,ac49ad5b0e4ca52be6bca6f573fe0e36,Attitude,38,0,att-item4,NULL,informativity,1
1586090263,ac49ad5b0e4ca52be6bca6f573fe0e36,Attitude,38,0,att-item4,NULL,interest,1
1586090263,ac49ad5b0e4ca52be6bca6f573fe0e36,Attitude,38,0,att-item4,NULL,clarity,1
1586090263,ac49ad5b0e4ca52be6bca6f573fe0e36,Attitude,36,0,att-item2,NULL,quality,6
1586090263,ac49ad5b0e4ca52be6bca6f573fe0e36,Attitude,36,0,att-item2,NULL,likability,6
1586090263,ac49ad5b0e4ca52be6bca6f573fe0e36,Attitude,36,0,att-item2,NULL,informativity,6
1586090263,ac49ad5b0e4ca52be6bca6f573fe0e36,Attitude,36,0,att-item2,NULL,interest,5
1586090263,ac49ad5b0e4ca52be6bca6f573fe0e36,Attitude,36,0,att-item2,NULL,clarity,5
1586090263,ac49ad5b0e4ca52be6bca6f573fe0e36,Attitude,35,0,att-item1,NULL,quality,5
1586090263,ac49ad5b0e4ca52be6bca6f573fe0e36,Attitude,35,0,att-item1,NULL,likability,4
1586090263,ac49ad5b0e4ca52be6bca6f573fe0e36,Attitude,35,0,att-item1,NULL,informativity,4
1586090263,ac49ad5b0e4ca52be6bca6f573fe0e36,Attitude,35,0,att-item1,NULL,interest,3
1586090263,ac49ad5b0e4ca52be6bca6f573fe0e36,Attitude,35,0,att-item1,NULL,clarity,4
1586090263,ac49ad5b0e4ca52be6bca6f573fe0e36,Attitude,39,0,att-filler1,NULL,quality,6
1586090263,ac49ad5b0e4ca52be6bca6f573fe0e36,Attitude,39,0,att-filler1,NULL,likability,6
1586090263,ac49ad5b0e4ca52be6bca6f573fe0e36,Attitude,39,0,att-filler1,NULL,informativity,6
1586090263,ac49ad5b0e4ca52be6bca6f573fe0e36,Attitude,39,0,att-filler1,NULL,interest,6
1586090263,ac49ad5b0e4ca52be6bca6f573fe0e36,Attitude,39,0,att-filler1,NULL,clarity,6
1586090263,ac49ad5b0e4ca52be6bca6f573fe0e36,Attitude,37,0,att-item3,NULL,quality,1
1586090263,ac49ad5b0e4ca52be6bca6f573fe0e36,Attitude,37,0,att-item3,NULL,likability,1
1586090263,ac49ad5b0e4ca52be6bca6f573fe0e36,Attitude,37,0,att-item3,NULL,informativity,1
1586090263,ac49ad5b0e4ca52be6bca6f573fe0e36,Attitude,37,0,att-item3,NULL,interest,1
1586090263,ac49ad5b0e4ca52be6bca6f573fe0e36,Attitude,37,0,att-item3,NULL,clarity,1
1586090263,ac49ad5b0e4ca52be6bca6f573fe0e36,Attitude,41,0,att-filler3,NULL,quality,3
1586090263,ac49ad5b0e4ca52be6bca6f573fe0e36,Attitude,41,0,att-filler3,NULL,likability,1
1586090263,ac49ad5b0e4ca52be6bca6f573fe0e36,Attitude,41,0,att-filler3,NULL,informativity,1
1586090263,ac49ad5b0e4ca52be6bca6f573fe0e36,Attitude,41,0,att-filler3,NULL,interest,1
1586090263,ac49ad5b0e4ca52be6bca6f573fe0e36,Attitude,41,0,att-filler3,NULL,clarity,7
#
# Results on Sunday April 05 2020 12:38:19 UTC.
# USER AGENT: Mozilla/5.0 (Windows NT 10.0; Win64; x64) AppleWebKit/537.36 (KHTML, like Gecko) Chrome/80.0.3987.163 Safari/537.36
# Design number was non-random = 5
#
# Columns below this comment are as follows:
# 1. Time results were received.
# 2. MD5 hash of participant's IP address.
# 3. Controller name.
# 4. Item number.
# 5. Element number.
# 6. Type.
# 7. Group.
# 8. Field name.
# 9. Field value.
1586090300,236395d80ad3abf8245bd1a32795183e,Form,0,0,intro,NULL,age,22
1586090300,236395d80ad3abf8245bd1a32795183e,Form,0,0,intro,NULL,consent,yes
1586090300,236395d80ad3abf8245bd1a32795183e,Form,0,0,intro,NULL,language,English
1586090300,236395d80ad3abf8245bd1a32795183e,Form,17,0,filler-i1,NULL,read,yes
1586090300,236395d80ad3abf8245bd1a32795183e,Form,2,0,exp-act-dis-item1,1,read,yes
1586090300,236395d80ad3abf8245bd1a32795183e,Form,13,0,exp-act-no-item4,4,read,yes
1586090300,236395d80ad3abf8245bd1a32795183e,Form,12,0,exp-pas-dis-item3,3,read,yes
1586090300,236395d80ad3abf8245bd1a32795183e,Form,7,0,exp-pas-no-item2,2,read,yes
1586090300,236395d80ad3abf8245bd1a32795183e,Form,18,0,filler-i2,NULL,read,yes
1586090300,236395d80ad3abf8245bd1a32795183e,Form,19,0,filler-i3,NULL,read,yes
1586090300,236395d80ad3abf8245bd1a32795183e,Form,21,0,recall,NULL,filler1,Je mets tout%2C et Mixtra fait le reste
1586090300,236395d80ad3abf8245bd1a32795183e,Form,21,0,recall,NULL,item1,Viscam garde vos souvenirs
1586090300,236395d80ad3abf8245bd1a32795183e,Form,21,0,recall,NULL,item2,Chaque goutte est fièrement distribuée par Evpure
1586090300,236395d80ad3abf8245bd1a32795183e,Form,21,0,recall,NULL,item3,Transcrivez vos pensées avec ...
1586090300,236395d80ad3abf8245bd1a32795183e,Form,21,0,recall,NULL,item4,Dynaflex ... robuste ... compétition
1586090300,236395d80ad3abf8245bd1a32795183e,Form,21,0,recall,NULL,filler2,... avec Protop
# Columns below this comment are as follows:
# 1. Time results were received.
# 2. MD5 hash of participant's IP address.
# 3. Controller name.
# 4. Item number.
# 5. Element number.
# 6. Type.
# 7. Group.
# 8. Question (NULL if none).
# 9. Answer.
# 10. Whether or not answer was correct (NULL if N/A).
# 11. Time taken to answer.
1586090300,236395d80ad3abf8245bd1a32795183e,Question,24,0,compr-item3,NULL,Quel &eacute;tait le sens du slogan pour l'<b>imprimante</b> ?,Le r&eacute;sultat ressemble de pr&egrave;s &agrave; vos id&eacute;es.,1,11097
1586090300,236395d80ad3abf8245bd1a32795183e,Question,25,0,compr-item4,NULL,Quel &eacute;tait le sens du slogan pour le <b>v&eacute;lo</b> ?,Ce v&eacute;lo l’emporte sur les autres avec solidit&eacute;.,1,7594
1586090300,236395d80ad3abf8245bd1a32795183e,Question,26,0,compr-filler1,NULL,Quel &eacute;tait le sens du slogan pour le <b>mixeur</b> ?,Cet appareil demande peu de travail en plus.,1,11398
1586090300,236395d80ad3abf8245bd1a32795183e,Question,22,0,compr-item1,NULL,Quel &eacute;tait le sens du slogan pour l'<b>appareil photo</b> ?,Cet appareil assure la p&eacute;rennit&eacute; des moment immortalis&eacute;s.,1,7572
1586090300,236395d80ad3abf8245bd1a32795183e,Question,23,0,compr-item2,NULL,Quel &eacute;tait le sens du slogan pour le <b>filtre &agrave; eau</b> ?,Cet appareil porte la digne responsabilit&eacute; de l’eau filtr&eacute;.,1,8467
1586090300,236395d80ad3abf8245bd1a32795183e,Question,27,0,compr-filler2,NULL,Quel &eacute;tait le sens du slogan pour l'<b>ordinateur portable</b> ?,Gr&acirc;ce &agrave; cet appareil%2C vous pourrez travailler partout.,0,6225
1586090300,236395d80ad3abf8245bd1a32795183e,Question,28,0,distractor,NULL,Quel est le nombre maximal de mammif&egrave;res marins visibles en m&ecirc;me temps sur un plan de la vid&eacute;o?,Quatre,NULL,11762
1586090300,236395d80ad3abf8245bd1a32795183e,Question,34,0,syn-filler2,NULL,Quel &eacute;tait le slogan pour l'<b>ordinateur portable</b> ?,Travaillez efficacement et dynamiquement avec Protop.,NULL,12015
1586090300,236395d80ad3abf8245bd1a32795183e,Question,31,0,syn-item3,NULL,Quel &eacute;tait le slogan pour l'<b>imprimante</b> ?,Vos pens&eacute;es sont pr&eacute;cis&eacute;ment reproduites par Comtech.,NULL,9587
1586090300,236395d80ad3abf8245bd1a32795183e,Question,29,0,syn-item1,NULL,Quel &eacute;tait le slogan pour l'<b>appareil photo</b> ?,Visadel%2C &ccedil;a conserve pr&eacute;cieusement vos souvenirs.,NULL,9091
1586090300,236395d80ad3abf8245bd1a32795183e,Question,32,0,syn-item4,NULL,Quel &eacute;tait le slogan pour le <b>v&eacute;lo</b> ?,Dynaflex conquiert robustement la comp&eacute;tition.,NULL,8547
1586090300,236395d80ad3abf8245bd1a32795183e,Question,30,0,syn-item2,NULL,Quel &eacute;tait le slogan pour le <b>filtre &agrave; eau</b> ?,Chaque goutte est fi&egrave;rement garantie par Evpure.,NULL,4478
1586090300,236395d80ad3abf8245bd1a32795183e,Question,33,0,syn-filler1,NULL,Quel &eacute;tait le slogan pour le <b>mixeur</b> ?,Je mets tout dedans%2C et Mixtra fait le reste.,NULL,6298
# Columns below this comment are as follows:
# 1. Time results were received.
# 2. MD5 hash of participant's IP address.
# 3. Controller name.
# 4. Item number.
# 5. Element number.
# 6. Type.
# 7. Group.
# 8. Field name.
# 9. Field value.
1586090300,236395d80ad3abf8245bd1a32795183e,Attitude,41,0,att-filler3,NULL,quality,3
1586090300,236395d80ad3abf8245bd1a32795183e,Attitude,41,0,att-filler3,NULL,likability,4
1586090300,236395d80ad3abf8245bd1a32795183e,Attitude,41,0,att-filler3,NULL,informativity,1
1586090300,236395d80ad3abf8245bd1a32795183e,Attitude,41,0,att-filler3,NULL,interest,3
1586090300,236395d80ad3abf8245bd1a32795183e,Attitude,41,0,att-filler3,NULL,clarity,3
1586090300,236395d80ad3abf8245bd1a32795183e,Attitude,37,0,att-item3,NULL,quality,3
1586090300,236395d80ad3abf8245bd1a32795183e,Attitude,37,0,att-item3,NULL,likability,3
1586090300,236395d80ad3abf8245bd1a32795183e,Attitude,37,0,att-item3,NULL,informativity,4
1586090300,236395d80ad3abf8245bd1a32795183e,Attitude,37,0,att-item3,NULL,interest,2
1586090300,236395d80ad3abf8245bd1a32795183e,Attitude,37,0,att-item3,NULL,clarity,3
1586090300,236395d80ad3abf8245bd1a32795183e,Attitude,39,0,att-filler1,NULL,quality,5
1586090300,236395d80ad3abf8245bd1a32795183e,Attitude,39,0,att-filler1,NULL,likability,5
1586090300,236395d80ad3abf8245bd1a32795183e,Attitude,39,0,att-filler1,NULL,informativity,3
1586090300,236395d80ad3abf8245bd1a32795183e,Attitude,39,0,att-filler1,NULL,interest,4
1586090300,236395d80ad3abf8245bd1a32795183e,Attitude,39,0,att-filler1,NULL,clarity,5
1586090300,236395d80ad3abf8245bd1a32795183e,Attitude,36,0,att-item2,NULL,quality,5
1586090300,236395d80ad3abf8245bd1a32795183e,Attitude,36,0,att-item2,NULL,likability,5
1586090300,236395d80ad3abf8245bd1a32795183e,Attitude,36,0,att-item2,NULL,informativity,4
1586090300,236395d80ad3abf8245bd1a32795183e,Attitude,36,0,att-item2,NULL,interest,5
1586090300,236395d80ad3abf8245bd1a32795183e,Attitude,36,0,att-item2,NULL,clarity,6
1586090300,236395d80ad3abf8245bd1a32795183e,Attitude,35,0,att-item1,NULL,quality,4
1586090300,236395d80ad3abf8245bd1a32795183e,Attitude,35,0,att-item1,NULL,likability,4
1586090300,236395d80ad3abf8245bd1a32795183e,Attitude,35,0,att-item1,NULL,informativity,5
1586090300,236395d80ad3abf8245bd1a32795183e,Attitude,35,0,att-item1,NULL,interest,5
1586090300,236395d80ad3abf8245bd1a32795183e,Attitude,35,0,att-item1,NULL,clarity,5
1586090300,236395d80ad3abf8245bd1a32795183e,Attitude,40,0,att-filler2,NULL,quality,4
1586090300,236395d80ad3abf8245bd1a32795183e,Attitude,40,0,att-filler2,NULL,likability,4
1586090300,236395d80ad3abf8245bd1a32795183e,Attitude,40,0,att-filler2,NULL,informativity,4
1586090300,236395d80ad3abf8245bd1a32795183e,Attitude,40,0,att-filler2,NULL,interest,4
1586090300,236395d80ad3abf8245bd1a32795183e,Attitude,40,0,att-filler2,NULL,clarity,4
1586090300,236395d80ad3abf8245bd1a32795183e,Attitude,38,0,att-item4,NULL,quality,3
1586090300,236395d80ad3abf8245bd1a32795183e,Attitude,38,0,att-item4,NULL,likability,3
1586090300,236395d80ad3abf8245bd1a32795183e,Attitude,38,0,att-item4,NULL,informativity,3
1586090300,236395d80ad3abf8245bd1a32795183e,Attitude,38,0,att-item4,NULL,interest,3
1586090300,236395d80ad3abf8245bd1a32795183e,Attitude,38,0,att-item4,NULL,clarity,3
#
# Results on Sunday April 05 2020 13:09:13 UTC.
# USER AGENT: Mozilla/5.0 (Linux; Android 9; SNE-LX1) AppleWebKit/537.36 (KHTML, like Gecko) Chrome/80.0.3987.162 Mobile Safari/537.36
# Design number was non-random = 7
#
# Columns below this comment are as follows:
# 1. Time results were received.
# 2. MD5 hash of participant's IP address.
# 3. Controller name.
# 4. Item number.
# 5. Element number.
# 6. Type.
# 7. Group.
# 8. Field name.
# 9. Field value.
1586092154,4753145d50a80ec67d062b225f9de6e9,Form,0,0,intro,NULL,age,23
1586092154,4753145d50a80ec67d062b225f9de6e9,Form,0,0,intro,NULL,consent,yes
1586092154,4753145d50a80ec67d062b225f9de6e9,Form,0,0,intro,NULL,language,English
1586092154,4753145d50a80ec67d062b225f9de6e9,Form,17,0,filler-i1,NULL,read,yes
1586092154,4753145d50a80ec67d062b225f9de6e9,Form,10,0,exp-act-dis-item3,3,read,yes
1586092154,4753145d50a80ec67d062b225f9de6e9,Form,5,0,exp-act-no-item2,2,read,yes
1586092154,4753145d50a80ec67d062b225f9de6e9,Form,4,0,exp-pas-dis-item1,1,read,yes
1586092154,4753145d50a80ec67d062b225f9de6e9,Form,15,0,exp-pas-no-item4,4,read,yes
1586092154,4753145d50a80ec67d062b225f9de6e9,Form,18,0,filler-i2,NULL,read,yes
1586092154,4753145d50a80ec67d062b225f9de6e9,Form,19,0,filler-i3,NULL,read,yes
1586092154,4753145d50a80ec67d062b225f9de6e9,Form,21,0,recall,NULL,filler1,Je met tout dedans et magimix fait le retse
1586092154,4753145d50a80ec67d062b225f9de6e9,Form,21,0,recall,NULL,item1,Reproduis fidèlement vos souvenir
1586092154,4753145d50a80ec67d062b225f9de6e9,Form,21,0,recall,NULL,item2,Purifie parfaitement chaque goute 
1586092154,4753145d50a80ec67d062b225f9de6e9,Form,21,0,recall,NULL,item3,Imprimé fidèlement vos pensées 
1586092154,4753145d50a80ec67d062b225f9de6e9,Form,21,0,recall,NULL,item4,Conquiert farouchement l adversité 
1586092154,4753145d50a80ec67d062b225f9de6e9,Form,21,0,recall,NULL,filler2,
# Columns below this comment are as follows:
# 1. Time results were received.
# 2. MD5 hash of participant's IP address.
# 3. Controller name.
# 4. Item number.
# 5. Element number.
# 6. Type.
# 7. Group.
# 8. Question (NULL if none).
# 9. Answer.
# 10. Whether or not answer was correct (NULL if N/A).
# 11. Time taken to answer.
1586092154,4753145d50a80ec67d062b225f9de6e9,Question,24,0,compr-item3,NULL,Quel &eacute;tait le sens du slogan pour l'<b>imprimante</b> ?,Le r&eacute;sultat ressemble de pr&egrave;s &agrave; vos id&eacute;es.,1,9931
1586092154,4753145d50a80ec67d062b225f9de6e9,Question,23,0,compr-item2,NULL,Quel &eacute;tait le sens du slogan pour le <b>filtre &agrave; eau</b> ?,Cet appareil porte la digne responsabilit&eacute; de l’eau filtr&eacute;.,1,12020
1586092154,4753145d50a80ec67d062b225f9de6e9,Question,22,0,compr-item1,NULL,Quel &eacute;tait le sens du slogan pour l'<b>appareil photo</b> ?,Cet appareil est muni d’un syst&egrave;me performant de capture d’image.,0,10049
1586092154,4753145d50a80ec67d062b225f9de6e9,Question,25,0,compr-item4,NULL,Quel &eacute;tait le sens du slogan pour le <b>v&eacute;lo</b> ?,Ce v&eacute;lo entraine moins de chutes en moyenne.,0,14282
1586092154,4753145d50a80ec67d062b225f9de6e9,Question,26,0,compr-filler1,NULL,Quel &eacute;tait le sens du slogan pour le <b>mixeur</b> ?,Cet appareil demande peu de travail en plus.,1,7091
1586092154,4753145d50a80ec67d062b225f9de6e9,Question,27,0,compr-filler2,NULL,Quel &eacute;tait le sens du slogan pour l'<b>ordinateur portable</b> ?,Gr&acirc;ce &agrave; cet appareil%2C vous serez performant et rapide.,1,6139
1586092154,4753145d50a80ec67d062b225f9de6e9,Question,28,0,distractor,NULL,Quel est le nombre maximal de mammif&egrave;res marins visibles en m&ecirc;me temps sur un plan de la vid&eacute;o?,Quatre,NULL,7628
1586092154,4753145d50a80ec67d062b225f9de6e9,Question,29,0,syn-item1,NULL,Quel &eacute;tait le slogan pour l'<b>appareil photo</b> ?,Visadel conserve pr&eacute;cieusement vos souvenirs.,NULL,11333
1586092154,4753145d50a80ec67d062b225f9de6e9,Question,32,0,syn-item4,NULL,Quel &eacute;tait le slogan pour le <b>v&eacute;lo</b> ?,La comp&eacute;tition est robustement conquise par Dynaflex.,NULL,8241
1586092154,4753145d50a80ec67d062b225f9de6e9,Question,33,0,syn-filler1,NULL,Quel &eacute;tait le slogan pour le <b>mixeur</b> ?,Je mets tout dedans%2C et Mixtra fait le reste.,NULL,6507
1586092154,4753145d50a80ec67d062b225f9de6e9,Question,30,0,syn-item2,NULL,Quel &eacute;tait le slogan pour le <b>filtre &agrave; eau</b> ?,Chaque goutte est fi&egrave;rement garantie par Evpure.,NULL,8680
1586092154,4753145d50a80ec67d062b225f9de6e9,Question,31,0,syn-item3,NULL,Quel &eacute;tait le slogan pour l'<b>imprimante</b> ?,Comtech reproduit pr&eacute;cis&eacute;ment vos pens&eacute;es.,NULL,6487
1586092154,4753145d50a80ec67d062b225f9de6e9,Question,34,0,syn-filler2,NULL,Quel &eacute;tait le slogan pour l'<b>ordinateur portable</b> ?,Travaillez dynamiquement et efficacement avec Protop.,NULL,7494
# Columns below this comment are as follows:
# 1. Time results were received.
# 2. MD5 hash of participant's IP address.
# 3. Controller name.
# 4. Item number.
# 5. Element number.
# 6. Type.
# 7. Group.
# 8. Field name.
# 9. Field value.
1586092154,4753145d50a80ec67d062b225f9de6e9,Attitude,41,0,att-filler3,NULL,quality,3
1586092154,4753145d50a80ec67d062b225f9de6e9,Attitude,41,0,att-filler3,NULL,likability,3
1586092154,4753145d50a80ec67d062b225f9de6e9,Attitude,41,0,att-filler3,NULL,informativity,3
1586092154,4753145d50a80ec67d062b225f9de6e9,Attitude,41,0,att-filler3,NULL,interest,3
1586092154,4753145d50a80ec67d062b225f9de6e9,Attitude,41,0,att-filler3,NULL,clarity,3
1586092154,4753145d50a80ec67d062b225f9de6e9,Attitude,37,0,att-item3,NULL,quality,3
1586092154,4753145d50a80ec67d062b225f9de6e9,Attitude,37,0,att-item3,NULL,likability,3
1586092154,4753145d50a80ec67d062b225f9de6e9,Attitude,37,0,att-item3,NULL,informativity,5
1586092154,4753145d50a80ec67d062b225f9de6e9,Attitude,37,0,att-item3,NULL,interest,2
1586092154,4753145d50a80ec67d062b225f9de6e9,Attitude,37,0,att-item3,NULL,clarity,1
1586092154,4753145d50a80ec67d062b225f9de6e9,Attitude,38,0,att-item4,NULL,quality,2
1586092154,4753145d50a80ec67d062b225f9de6e9,Attitude,38,0,att-item4,NULL,likability,3
1586092154,4753145d50a80ec67d062b225f9de6e9,Attitude,38,0,att-item4,NULL,informativity,1
1586092154,4753145d50a80ec67d062b225f9de6e9,Attitude,38,0,att-item4,NULL,interest,3
1586092154,4753145d50a80ec67d062b225f9de6e9,Attitude,38,0,att-item4,NULL,clarity,1
1586092154,4753145d50a80ec67d062b225f9de6e9,Attitude,40,0,att-filler2,NULL,quality,2
1586092154,4753145d50a80ec67d062b225f9de6e9,Attitude,40,0,att-filler2,NULL,likability,3
1586092154,4753145d50a80ec67d062b225f9de6e9,Attitude,40,0,att-filler2,NULL,informativity,1
1586092154,4753145d50a80ec67d062b225f9de6e9,Attitude,40,0,att-filler2,NULL,interest,3
1586092154,4753145d50a80ec67d062b225f9de6e9,Attitude,40,0,att-filler2,NULL,clarity,1
1586092154,4753145d50a80ec67d062b225f9de6e9,Attitude,39,0,att-filler1,NULL,quality,2
1586092154,4753145d50a80ec67d062b225f9de6e9,Attitude,39,0,att-filler1,NULL,likability,3
1586092154,4753145d50a80ec67d062b225f9de6e9,Attitude,39,0,att-filler1,NULL,informativity,1
1586092154,4753145d50a80ec67d062b225f9de6e9,Attitude,39,0,att-filler1,NULL,interest,2
1586092154,4753145d50a80ec67d062b225f9de6e9,Attitude,39,0,att-filler1,NULL,clarity,1
1586092154,4753145d50a80ec67d062b225f9de6e9,Attitude,35,0,att-item1,NULL,quality,3
1586092154,4753145d50a80ec67d062b225f9de6e9,Attitude,35,0,att-item1,NULL,likability,3
1586092154,4753145d50a80ec67d062b225f9de6e9,Attitude,35,0,att-item1,NULL,informativity,1
1586092154,4753145d50a80ec67d062b225f9de6e9,Attitude,35,0,att-item1,NULL,interest,2
1586092154,4753145d50a80ec67d062b225f9de6e9,Attitude,35,0,att-item1,NULL,clarity,1
1586092154,4753145d50a80ec67d062b225f9de6e9,Attitude,36,0,att-item2,NULL,quality,3
1586092154,4753145d50a80ec67d062b225f9de6e9,Attitude,36,0,att-item2,NULL,likability,2
1586092154,4753145d50a80ec67d062b225f9de6e9,Attitude,36,0,att-item2,NULL,informativity,1
1586092154,4753145d50a80ec67d062b225f9de6e9,Attitude,36,0,att-item2,NULL,interest,3
1586092154,4753145d50a80ec67d062b225f9de6e9,Attitude,36,0,att-item2,NULL,clarity,1
#
# Results on Sunday April 05 2020 13:19:39 UTC.
# USER AGENT: Mozilla/5.0 (Windows NT 10.0; Win64; x64; rv:74.0) Gecko/20100101 Firefox/74.0
# Design number was non-random = 7
#
# Columns below this comment are as follows:
# 1. Time results were received.
# 2. MD5 hash of participant's IP address.
# 3. Controller name.
# 4. Item number.
# 5. Element number.
# 6. Type.
# 7. Group.
# 8. Field name.
# 9. Field value.
1586092780,b46744c1c31d1522b1511f7498602ce6,Form,0,0,intro,NULL,age,28
1586092780,b46744c1c31d1522b1511f7498602ce6,Form,0,0,intro,NULL,consent,yes
1586092780,b46744c1c31d1522b1511f7498602ce6,Form,0,0,intro,NULL,language,English
1586092780,b46744c1c31d1522b1511f7498602ce6,Form,17,0,filler-i1,NULL,read,yes
1586092780,b46744c1c31d1522b1511f7498602ce6,Form,10,0,exp-act-dis-item3,3,read,yes
1586092780,b46744c1c31d1522b1511f7498602ce6,Form,15,0,exp-pas-no-item4,4,read,yes
1586092780,b46744c1c31d1522b1511f7498602ce6,Form,5,0,exp-act-no-item2,2,read,yes
1586092780,b46744c1c31d1522b1511f7498602ce6,Form,4,0,exp-pas-dis-item1,1,read,yes
1586092780,b46744c1c31d1522b1511f7498602ce6,Form,18,0,filler-i2,NULL,read,yes
1586092780,b46744c1c31d1522b1511f7498602ce6,Form,19,0,filler-i3,NULL,read,yes
1586092780,b46744c1c31d1522b1511f7498602ce6,Form,21,0,recall,NULL,filler1,vous mettez tout dedans et il fait le reste
1586092780,b46744c1c31d1522b1511f7498602ce6,Form,21,0,recall,NULL,item1,pour garder les moments de votre vie
1586092780,b46744c1c31d1522b1511f7498602ce6,Form,21,0,recall,NULL,item2,?
1586092780,b46744c1c31d1522b1511f7498602ce6,Form,21,0,recall,NULL,item3,un truc avec technonogie
1586092780,b46744c1c31d1522b1511f7498602ce6,Form,21,0,recall,NULL,item4,?
1586092780,b46744c1c31d1522b1511f7498602ce6,Form,21,0,recall,NULL,filler2,un truc avec travail
# Columns below this comment are as follows:
# 1. Time results were received.
# 2. MD5 hash of participant's IP address.
# 3. Controller name.
# 4. Item number.
# 5. Element number.
# 6. Type.
# 7. Group.
# 8. Question (NULL if none).
# 9. Answer.
# 10. Whether or not answer was correct (NULL if N/A).
# 11. Time taken to answer.
1586092780,b46744c1c31d1522b1511f7498602ce6,Question,23,0,compr-item2,NULL,Quel &eacute;tait le sens du slogan pour le <b>filtre &agrave; eau</b> ?,Cet appareil porte la digne responsabilit&eacute; de l’eau filtr&eacute;.,1,29524
1586092780,b46744c1c31d1522b1511f7498602ce6,Question,27,0,compr-filler2,NULL,Quel &eacute;tait le sens du slogan pour l'<b>ordinateur portable</b> ?,Gr&acirc;ce &agrave; cet appareil%2C vous serez performant et rapide.,1,9130
1586092780,b46744c1c31d1522b1511f7498602ce6,Question,26,0,compr-filler1,NULL,Quel &eacute;tait le sens du slogan pour le <b>mixeur</b> ?,Cet appareil demande peu de travail en plus.,1,25093
1586092780,b46744c1c31d1522b1511f7498602ce6,Question,24,0,compr-item3,NULL,Quel &eacute;tait le sens du slogan pour l'<b>imprimante</b> ?,Le r&eacute;sultat ressemble de pr&egrave;s &agrave; vos id&eacute;es.,1,11902
1586092780,b46744c1c31d1522b1511f7498602ce6,Question,22,0,compr-item1,NULL,Quel &eacute;tait le sens du slogan pour l'<b>appareil photo</b> ?,Cet appareil assure la p&eacute;rennit&eacute; des moment immortalis&eacute;s.,1,9830
1586092780,b46744c1c31d1522b1511f7498602ce6,Question,25,0,compr-item4,NULL,Quel &eacute;tait le sens du slogan pour le <b>v&eacute;lo</b> ?,Ce v&eacute;lo l’emporte sur les autres avec solidit&eacute;.,1,21101
1586092780,b46744c1c31d1522b1511f7498602ce6,Question,28,0,distractor,NULL,Quel est le nombre maximal de mammif&egrave;res marins visibles en m&ecirc;me temps sur un plan de la vid&eacute;o?,Quatre,NULL,16927
1586092780,b46744c1c31d1522b1511f7498602ce6,Question,30,0,syn-item2,NULL,Quel &eacute;tait le slogan pour le <b>filtre &agrave; eau</b> ?,Chaque goutte est fi&egrave;rement garantie par Evpure.,NULL,13915
1586092780,b46744c1c31d1522b1511f7498602ce6,Question,31,0,syn-item3,NULL,Quel &eacute;tait le slogan pour l'<b>imprimante</b> ?,Vos pens&eacute;es sont pr&eacute;cis&eacute;ment reproduites par Comtech.,NULL,35351
1586092780,b46744c1c31d1522b1511f7498602ce6,Question,32,0,syn-item4,NULL,Quel &eacute;tait le slogan pour le <b>v&eacute;lo</b> ?,La comp&eacute;tition est robustement conquise par Dynaflex.,NULL,11603
1586092780,b46744c1c31d1522b1511f7498602ce6,Question,34,0,syn-filler2,NULL,Quel &eacute;tait le slogan pour l'<b>ordinateur portable</b> ?,Travaillez efficacement et dynamiquement avec Protop.,NULL,21934
1586092780,b46744c1c31d1522b1511f7498602ce6,Question,33,0,syn-filler1,NULL,Quel &eacute;tait le slogan pour le <b>mixeur</b> ?,Je mets tout dedans%2C et Mixtra fait le reste.,NULL,8166
1586092780,b46744c1c31d1522b1511f7498602ce6,Question,29,0,syn-item1,NULL,Quel &eacute;tait le slogan pour l'<b>appareil photo</b> ?,Vos souvenirs sont pr&eacute;cieusement conserv&eacute;s par Visadel.,NULL,6798
# Columns below this comment are as follows:
# 1. Time results were received.
# 2. MD5 hash of participant's IP address.
# 3. Controller name.
# 4. Item number.
# 5. Element number.
# 6. Type.
# 7. Group.
# 8. Field name.
# 9. Field value.
1586092780,b46744c1c31d1522b1511f7498602ce6,Attitude,36,0,att-item2,NULL,quality,3
1586092780,b46744c1c31d1522b1511f7498602ce6,Attitude,36,0,att-item2,NULL,likability,3
1586092780,b46744c1c31d1522b1511f7498602ce6,Attitude,36,0,att-item2,NULL,informativity,3
1586092780,b46744c1c31d1522b1511f7498602ce6,Attitude,36,0,att-item2,NULL,interest,3
1586092780,b46744c1c31d1522b1511f7498602ce6,Attitude,36,0,att-item2,NULL,clarity,3
1586092780,b46744c1c31d1522b1511f7498602ce6,Attitude,35,0,att-item1,NULL,quality,5
1586092780,b46744c1c31d1522b1511f7498602ce6,Attitude,35,0,att-item1,NULL,likability,5
1586092780,b46744c1c31d1522b1511f7498602ce6,Attitude,35,0,att-item1,NULL,informativity,5
1586092780,b46744c1c31d1522b1511f7498602ce6,Attitude,35,0,att-item1,NULL,interest,3
1586092780,b46744c1c31d1522b1511f7498602ce6,Attitude,35,0,att-item1,NULL,clarity,7
1586092780,b46744c1c31d1522b1511f7498602ce6,Attitude,40,0,att-filler2,NULL,quality,6
1586092780,b46744c1c31d1522b1511f7498602ce6,Attitude,40,0,att-filler2,NULL,likability,5
1586092780,b46744c1c31d1522b1511f7498602ce6,Attitude,40,0,att-filler2,NULL,informativity,5
1586092780,b46744c1c31d1522b1511f7498602ce6,Attitude,40,0,att-filler2,NULL,interest,4
1586092780,b46744c1c31d1522b1511f7498602ce6,Attitude,40,0,att-filler2,NULL,clarity,6
1586092780,b46744c1c31d1522b1511f7498602ce6,Attitude,37,0,att-item3,NULL,quality,1
1586092780,b46744c1c31d1522b1511f7498602ce6,Attitude,37,0,att-item3,NULL,likability,1
1586092780,b46744c1c31d1522b1511f7498602ce6,Attitude,37,0,att-item3,NULL,informativity,1
1586092780,b46744c1c31d1522b1511f7498602ce6,Attitude,37,0,att-item3,NULL,interest,1
1586092780,b46744c1c31d1522b1511f7498602ce6,Attitude,37,0,att-item3,NULL,clarity,1
1586092780,b46744c1c31d1522b1511f7498602ce6,Attitude,39,0,att-filler1,NULL,quality,6
1586092780,b46744c1c31d1522b1511f7498602ce6,Attitude,39,0,att-filler1,NULL,likability,6
1586092780,b46744c1c31d1522b1511f7498602ce6,Attitude,39,0,att-filler1,NULL,informativity,6
1586092780,b46744c1c31d1522b1511f7498602ce6,Attitude,39,0,att-filler1,NULL,interest,6
1586092780,b46744c1c31d1522b1511f7498602ce6,Attitude,39,0,att-filler1,NULL,clarity,7
1586092780,b46744c1c31d1522b1511f7498602ce6,Attitude,41,0,att-filler3,NULL,quality,7
1586092780,b46744c1c31d1522b1511f7498602ce6,Attitude,41,0,att-filler3,NULL,likability,7
1586092780,b46744c1c31d1522b1511f7498602ce6,Attitude,41,0,att-filler3,NULL,informativity,4
1586092780,b46744c1c31d1522b1511f7498602ce6,Attitude,41,0,att-filler3,NULL,interest,4
1586092780,b46744c1c31d1522b1511f7498602ce6,Attitude,41,0,att-filler3,NULL,clarity,7
1586092780,b46744c1c31d1522b1511f7498602ce6,Attitude,38,0,att-item4,NULL,quality,4
1586092780,b46744c1c31d1522b1511f7498602ce6,Attitude,38,0,att-item4,NULL,likability,4
1586092780,b46744c1c31d1522b1511f7498602ce6,Attitude,38,0,att-item4,NULL,informativity,4
1586092780,b46744c1c31d1522b1511f7498602ce6,Attitude,38,0,att-item4,NULL,interest,4
1586092780,b46744c1c31d1522b1511f7498602ce6,Attitude,38,0,att-item4,NULL,clarity,4
#
# Results on Sunday April 05 2020 16:02:03 UTC.
# USER AGENT: Mozilla/5.0 (Windows NT 10.0; Win64; x64) AppleWebKit/537.36 (KHTML, like Gecko) Chrome/80.0.3987.163 Safari/537.36
# Design number was non-random = 9
#
# Columns below this comment are as follows:
# 1. Time results were received.
# 2. MD5 hash of participant's IP address.
# 3. Controller name.
# 4. Item number.
# 5. Element number.
# 6. Type.
# 7. Group.
# 8. Field name.
# 9. Field value.
1586102524,2580582dbbec86aff19ff6ccb1a7b98f,Form,0,0,intro,NULL,age,22
1586102524,2580582dbbec86aff19ff6ccb1a7b98f,Form,0,0,intro,NULL,consent,yes
1586102524,2580582dbbec86aff19ff6ccb1a7b98f,Form,0,0,intro,NULL,language,English
1586102524,2580582dbbec86aff19ff6ccb1a7b98f,Form,17,0,filler-i1,NULL,read,yes
1586102524,2580582dbbec86aff19ff6ccb1a7b98f,Form,13,0,exp-act-no-item4,4,read,yes
1586102524,2580582dbbec86aff19ff6ccb1a7b98f,Form,12,0,exp-pas-dis-item3,3,read,yes
1586102524,2580582dbbec86aff19ff6ccb1a7b98f,Form,7,0,exp-pas-no-item2,2,read,yes
1586102524,2580582dbbec86aff19ff6ccb1a7b98f,Form,2,0,exp-act-dis-item1,1,read,yes
1586102524,2580582dbbec86aff19ff6ccb1a7b98f,Form,18,0,filler-i2,NULL,read,yes
1586102524,2580582dbbec86aff19ff6ccb1a7b98f,Form,19,0,filler-i3,NULL,read,yes
1586102524,2580582dbbec86aff19ff6ccb1a7b98f,Form,21,0,recall,NULL,filler1,
1586102524,2580582dbbec86aff19ff6ccb1a7b98f,Form,21,0,recall,NULL,item1,Visadel conserve vos souvenir
1586102524,2580582dbbec86aff19ff6ccb1a7b98f,Form,21,0,recall,NULL,item2,... avec Evpure
1586102524,2580582dbbec86aff19ff6ccb1a7b98f,Form,21,0,recall,NULL,item3,
1586102524,2580582dbbec86aff19ff6ccb1a7b98f,Form,21,0,recall,NULL,item4,
1586102524,2580582dbbec86aff19ff6ccb1a7b98f,Form,21,0,recall,NULL,filler2,... ProTop
# Columns below this comment are as follows:
# 1. Time results were received.
# 2. MD5 hash of participant's IP address.
# 3. Controller name.
# 4. Item number.
# 5. Element number.
# 6. Type.
# 7. Group.
# 8. Question (NULL if none).
# 9. Answer.
# 10. Whether or not answer was correct (NULL if N/A).
# 11. Time taken to answer.
1586102524,2580582dbbec86aff19ff6ccb1a7b98f,Question,22,0,compr-item1,NULL,Quel &eacute;tait le sens du slogan pour l'<b>appareil photo</b> ?,Cet appareil assure la p&eacute;rennit&eacute; des moment immortalis&eacute;s.,1,11231
1586102524,2580582dbbec86aff19ff6ccb1a7b98f,Question,24,0,compr-item3,NULL,Quel &eacute;tait le sens du slogan pour l'<b>imprimante</b> ?,Le r&eacute;sultat a un &eacute;clat surprenant.,0,9660
1586102524,2580582dbbec86aff19ff6ccb1a7b98f,Question,23,0,compr-item2,NULL,Quel &eacute;tait le sens du slogan pour le <b>filtre &agrave; eau</b> ?,Cet appareil porte la digne responsabilit&eacute; de l’eau filtr&eacute;.,1,9255
1586102524,2580582dbbec86aff19ff6ccb1a7b98f,Question,25,0,compr-item4,NULL,Quel &eacute;tait le sens du slogan pour le <b>v&eacute;lo</b> ?,Ce v&eacute;lo l’emporte sur les autres avec solidit&eacute;.,1,12952
1586102524,2580582dbbec86aff19ff6ccb1a7b98f,Question,27,0,compr-filler2,NULL,Quel &eacute;tait le sens du slogan pour l'<b>ordinateur portable</b> ?,Gr&acirc;ce &agrave; cet appareil%2C vous serez performant et rapide.,1,6949
1586102524,2580582dbbec86aff19ff6ccb1a7b98f,Question,26,0,compr-filler1,NULL,Quel &eacute;tait le sens du slogan pour le <b>mixeur</b> ?,Cet appareil a de multiples fonctions.,0,4419
1586102524,2580582dbbec86aff19ff6ccb1a7b98f,Question,28,0,distractor,NULL,Quel est le nombre maximal de mammif&egrave;res marins visibles en m&ecirc;me temps sur un plan de la vid&eacute;o?,Deux,NULL,8302
1586102524,2580582dbbec86aff19ff6ccb1a7b98f,Question,29,0,syn-item1,NULL,Quel &eacute;tait le slogan pour l'<b>appareil photo</b> ?,Vos souvenirs sont pr&eacute;cieusement conserv&eacute;s par Visadel.,NULL,9265
1586102524,2580582dbbec86aff19ff6ccb1a7b98f,Question,34,0,syn-filler2,NULL,Quel &eacute;tait le slogan pour l'<b>ordinateur portable</b> ?,Travaillez dynamiquement et efficacement avec Protop.,NULL,9835
1586102524,2580582dbbec86aff19ff6ccb1a7b98f,Question,30,0,syn-item2,NULL,Quel &eacute;tait le slogan pour le <b>filtre &agrave; eau</b> ?,Chaque goutte est fi&egrave;rement garantie par Evpure.,NULL,5158
1586102524,2580582dbbec86aff19ff6ccb1a7b98f,Question,32,0,syn-item4,NULL,Quel &eacute;tait le slogan pour le <b>v&eacute;lo</b> ?,Dynaflex conquiert robustement la comp&eacute;tition.,NULL,9049
1586102524,2580582dbbec86aff19ff6ccb1a7b98f,Question,33,0,syn-filler1,NULL,Quel &eacute;tait le slogan pour le <b>mixeur</b> ?,Je mets tout dedans%2C et Mixtra fait le reste.,NULL,3716
1586102524,2580582dbbec86aff19ff6ccb1a7b98f,Question,31,0,syn-item3,NULL,Quel &eacute;tait le slogan pour l'<b>imprimante</b> ?,Comtech reproduit pr&eacute;cis&eacute;ment vos pens&eacute;es.,NULL,5710
# Columns below this comment are as follows:
# 1. Time results were received.
# 2. MD5 hash of participant's IP address.
# 3. Controller name.
# 4. Item number.
# 5. Element number.
# 6. Type.
# 7. Group.
# 8. Field name.
# 9. Field value.
1586102524,2580582dbbec86aff19ff6ccb1a7b98f,Attitude,41,0,att-filler3,NULL,quality,6
1586102524,2580582dbbec86aff19ff6ccb1a7b98f,Attitude,41,0,att-filler3,NULL,likability,5
1586102524,2580582dbbec86aff19ff6ccb1a7b98f,Attitude,41,0,att-filler3,NULL,informativity,3
1586102524,2580582dbbec86aff19ff6ccb1a7b98f,Attitude,41,0,att-filler3,NULL,interest,3
1586102524,2580582dbbec86aff19ff6ccb1a7b98f,Attitude,41,0,att-filler3,NULL,clarity,6
1586102524,2580582dbbec86aff19ff6ccb1a7b98f,Attitude,35,0,att-item1,NULL,quality,4
1586102524,2580582dbbec86aff19ff6ccb1a7b98f,Attitude,35,0,att-item1,NULL,likability,5
1586102524,2580582dbbec86aff19ff6ccb1a7b98f,Attitude,35,0,att-item1,NULL,informativity,2
1586102524,2580582dbbec86aff19ff6ccb1a7b98f,Attitude,35,0,att-item1,NULL,interest,5
1586102524,2580582dbbec86aff19ff6ccb1a7b98f,Attitude,35,0,att-item1,NULL,clarity,6
1586102524,2580582dbbec86aff19ff6ccb1a7b98f,Attitude,37,0,att-item3,NULL,quality,2
1586102524,2580582dbbec86aff19ff6ccb1a7b98f,Attitude,37,0,att-item3,NULL,likability,4
1586102524,2580582dbbec86aff19ff6ccb1a7b98f,Attitude,37,0,att-item3,NULL,informativity,3
1586102524,2580582dbbec86aff19ff6ccb1a7b98f,Attitude,37,0,att-item3,NULL,interest,2
1586102524,2580582dbbec86aff19ff6ccb1a7b98f,Attitude,37,0,att-item3,NULL,clarity,5
1586102524,2580582dbbec86aff19ff6ccb1a7b98f,Attitude,36,0,att-item2,NULL,quality,5
1586102524,2580582dbbec86aff19ff6ccb1a7b98f,Attitude,36,0,att-item2,NULL,likability,6
1586102524,2580582dbbec86aff19ff6ccb1a7b98f,Attitude,36,0,att-item2,NULL,informativity,5
1586102524,2580582dbbec86aff19ff6ccb1a7b98f,Attitude,36,0,att-item2,NULL,interest,3
1586102524,2580582dbbec86aff19ff6ccb1a7b98f,Attitude,36,0,att-item2,NULL,clarity,5
1586102524,2580582dbbec86aff19ff6ccb1a7b98f,Attitude,40,0,att-filler2,NULL,quality,5
1586102524,2580582dbbec86aff19ff6ccb1a7b98f,Attitude,40,0,att-filler2,NULL,likability,4
1586102524,2580582dbbec86aff19ff6ccb1a7b98f,Attitude,40,0,att-filler2,NULL,informativity,2
1586102524,2580582dbbec86aff19ff6ccb1a7b98f,Attitude,40,0,att-filler2,NULL,interest,3
1586102524,2580582dbbec86aff19ff6ccb1a7b98f,Attitude,40,0,att-filler2,NULL,clarity,4
1586102524,2580582dbbec86aff19ff6ccb1a7b98f,Attitude,39,0,att-filler1,NULL,quality,6
1586102524,2580582dbbec86aff19ff6ccb1a7b98f,Attitude,39,0,att-filler1,NULL,likability,5
1586102524,2580582dbbec86aff19ff6ccb1a7b98f,Attitude,39,0,att-filler1,NULL,informativity,5
1586102524,2580582dbbec86aff19ff6ccb1a7b98f,Attitude,39,0,att-filler1,NULL,interest,4
1586102524,2580582dbbec86aff19ff6ccb1a7b98f,Attitude,39,0,att-filler1,NULL,clarity,6
1586102524,2580582dbbec86aff19ff6ccb1a7b98f,Attitude,38,0,att-item4,NULL,quality,3
1586102524,2580582dbbec86aff19ff6ccb1a7b98f,Attitude,38,0,att-item4,NULL,likability,4
1586102524,2580582dbbec86aff19ff6ccb1a7b98f,Attitude,38,0,att-item4,NULL,informativity,6
1586102524,2580582dbbec86aff19ff6ccb1a7b98f,Attitude,38,0,att-item4,NULL,interest,5
1586102524,2580582dbbec86aff19ff6ccb1a7b98f,Attitude,38,0,att-item4,NULL,clarity,3
#
# Results on Sunday April 05 2020 16:16:35 UTC.
# USER AGENT: Mozilla/5.0 (Android; Mobile) Gecko/68.0 Firefox/68.0 QwantMobile/3.5
# Design number was non-random = 10
#
# Columns below this comment are as follows:
# 1. Time results were received.
# 2. MD5 hash of participant's IP address.
# 3. Controller name.
# 4. Item number.
# 5. Element number.
# 6. Type.
# 7. Group.
# 8. Field name.
# 9. Field value.
1586103395,251375b4e51128452c3252acd90ed106,Form,0,0,intro,NULL,age,22
1586103395,251375b4e51128452c3252acd90ed106,Form,0,0,intro,NULL,consent,yes
1586103395,251375b4e51128452c3252acd90ed106,Form,0,0,intro,NULL,language,English
1586103395,251375b4e51128452c3252acd90ed106,Form,17,0,filler-i1,NULL,read,yes
1586103395,251375b4e51128452c3252acd90ed106,Form,14,0,exp-act-dis-item4,4,read,yes
1586103395,251375b4e51128452c3252acd90ed106,Form,9,0,exp-act-no-item3,3,read,yes
1586103395,251375b4e51128452c3252acd90ed106,Form,3,0,exp-pas-no-item1,1,read,yes
1586103395,251375b4e51128452c3252acd90ed106,Form,8,0,exp-pas-dis-item2,2,read,yes
1586103395,251375b4e51128452c3252acd90ed106,Form,18,0,filler-i2,NULL,read,yes
1586103395,251375b4e51128452c3252acd90ed106,Form,19,0,filler-i3,NULL,read,yes
1586103395,251375b4e51128452c3252acd90ed106,Form,21,0,recall,NULL,filler1,*non du mixeur*%2C je mets dedans et ça mixe
1586103395,251375b4e51128452c3252acd90ed106,Form,21,0,recall,NULL,item1,*nom* garde tous mes souvenirs
1586103395,251375b4e51128452c3252acd90ed106,Form,21,0,recall,NULL,item2,*nom*%2C purifie chaque goutte d'eau
1586103395,251375b4e51128452c3252acd90ed106,Form,21,0,recall,NULL,item3,?? 
1586103395,251375b4e51128452c3252acd90ed106,Form,21,0,recall,NULL,item4,*nom*%2C gagne la concurrence
1586103395,251375b4e51128452c3252acd90ed106,Form,21,0,recall,NULL,filler2,?? 
# Columns below this comment are as follows:
# 1. Time results were received.
# 2. MD5 hash of participant's IP address.
# 3. Controller name.
# 4. Item number.
# 5. Element number.
# 6. Type.
# 7. Group.
# 8. Question (NULL if none).
# 9. Answer.
# 10. Whether or not answer was correct (NULL if N/A).
# 11. Time taken to answer.
1586103395,251375b4e51128452c3252acd90ed106,Question,23,0,compr-item2,NULL,Quel &eacute;tait le sens du slogan pour le <b>filtre &agrave; eau</b> ?,Cet appareil porte la digne responsabilit&eacute; de l’eau filtr&eacute;.,1,14968
1586103395,251375b4e51128452c3252acd90ed106,Question,26,0,compr-filler1,NULL,Quel &eacute;tait le sens du slogan pour le <b>mixeur</b> ?,Cet appareil demande peu de travail en plus.,1,8936
1586103395,251375b4e51128452c3252acd90ed106,Question,27,0,compr-filler2,NULL,Quel &eacute;tait le sens du slogan pour l'<b>ordinateur portable</b> ?,Gr&acirc;ce &agrave; cet appareil%2C vous serez performant et rapide.,1,9333
1586103395,251375b4e51128452c3252acd90ed106,Question,25,0,compr-item4,NULL,Quel &eacute;tait le sens du slogan pour le <b>v&eacute;lo</b> ?,Ce v&eacute;lo l’emporte sur les autres avec solidit&eacute;.,1,9150
1586103395,251375b4e51128452c3252acd90ed106,Question,24,0,compr-item3,NULL,Quel &eacute;tait le sens du slogan pour l'<b>imprimante</b> ?,Le r&eacute;sultat ressemble de pr&egrave;s &agrave; vos id&eacute;es.,1,7042
1586103395,251375b4e51128452c3252acd90ed106,Question,22,0,compr-item1,NULL,Quel &eacute;tait le sens du slogan pour l'<b>appareil photo</b> ?,Cet appareil assure la p&eacute;rennit&eacute; des moment immortalis&eacute;s.,1,8952
1586103395,251375b4e51128452c3252acd90ed106,Question,28,0,distractor,NULL,Quel est le nombre maximal de mammif&egrave;res marins visibles en m&ecirc;me temps sur un plan de la vid&eacute;o?,Quatre,NULL,7078
1586103395,251375b4e51128452c3252acd90ed106,Question,31,0,syn-item3,NULL,Quel &eacute;tait le slogan pour l'<b>imprimante</b> ?,Comtech reproduit pr&eacute;cis&eacute;ment vos pens&eacute;es.,NULL,10891
1586103395,251375b4e51128452c3252acd90ed106,Question,32,0,syn-item4,NULL,Quel &eacute;tait le slogan pour le <b>v&eacute;lo</b> ?,Dynaflex conquiert robustement la comp&eacute;tition.,NULL,11508
1586103395,251375b4e51128452c3252acd90ed106,Question,33,0,syn-filler1,NULL,Quel &eacute;tait le slogan pour le <b>mixeur</b> ?,Je mets tout dedans%2C et Mixtra fait le reste.,NULL,8575
1586103395,251375b4e51128452c3252acd90ed106,Question,34,0,syn-filler2,NULL,Quel &eacute;tait le slogan pour l'<b>ordinateur portable</b> ?,Avec Protop%2C travaillez dynamiquement et efficacement.,NULL,12894
1586103395,251375b4e51128452c3252acd90ed106,Question,30,0,syn-item2,NULL,Quel &eacute;tait le slogan pour le <b>filtre &agrave; eau</b> ?,Evpure%2C &ccedil;a garantit fi&egrave;rement chaque goutte.,NULL,11255
1586103395,251375b4e51128452c3252acd90ed106,Question,29,0,syn-item1,NULL,Quel &eacute;tait le slogan pour l'<b>appareil photo</b> ?,Visadel conserve pr&eacute;cieusement vos souvenirs.,NULL,5443
# Columns below this comment are as follows:
# 1. Time results were received.
# 2. MD5 hash of participant's IP address.
# 3. Controller name.
# 4. Item number.
# 5. Element number.
# 6. Type.
# 7. Group.
# 8. Field name.
# 9. Field value.
1586103395,251375b4e51128452c3252acd90ed106,Attitude,36,0,att-item2,NULL,quality,4
1586103395,251375b4e51128452c3252acd90ed106,Attitude,36,0,att-item2,NULL,likability,4
1586103395,251375b4e51128452c3252acd90ed106,Attitude,36,0,att-item2,NULL,informativity,1
1586103395,251375b4e51128452c3252acd90ed106,Attitude,36,0,att-item2,NULL,interest,1
1586103395,251375b4e51128452c3252acd90ed106,Attitude,36,0,att-item2,NULL,clarity,7
1586103395,251375b4e51128452c3252acd90ed106,Attitude,35,0,att-item1,NULL,quality,3
1586103395,251375b4e51128452c3252acd90ed106,Attitude,35,0,att-item1,NULL,likability,6
1586103395,251375b4e51128452c3252acd90ed106,Attitude,35,0,att-item1,NULL,informativity,1
1586103395,251375b4e51128452c3252acd90ed106,Attitude,35,0,att-item1,NULL,interest,1
1586103395,251375b4e51128452c3252acd90ed106,Attitude,35,0,att-item1,NULL,clarity,5
1586103395,251375b4e51128452c3252acd90ed106,Attitude,37,0,att-item3,NULL,quality,3
1586103395,251375b4e51128452c3252acd90ed106,Attitude,37,0,att-item3,NULL,likability,2
1586103395,251375b4e51128452c3252acd90ed106,Attitude,37,0,att-item3,NULL,informativity,1
1586103395,251375b4e51128452c3252acd90ed106,Attitude,37,0,att-item3,NULL,interest,1
1586103395,251375b4e51128452c3252acd90ed106,Attitude,37,0,att-item3,NULL,clarity,6
1586103395,251375b4e51128452c3252acd90ed106,Attitude,41,0,att-filler3,NULL,quality,7
1586103395,251375b4e51128452c3252acd90ed106,Attitude,41,0,att-filler3,NULL,likability,7
1586103395,251375b4e51128452c3252acd90ed106,Attitude,41,0,att-filler3,NULL,informativity,2
1586103395,251375b4e51128452c3252acd90ed106,Attitude,41,0,att-filler3,NULL,interest,7
1586103395,251375b4e51128452c3252acd90ed106,Attitude,41,0,att-filler3,NULL,clarity,7
1586103395,251375b4e51128452c3252acd90ed106,Attitude,39,0,att-filler1,NULL,quality,3
1586103395,251375b4e51128452c3252acd90ed106,Attitude,39,0,att-filler1,NULL,likability,4
1586103395,251375b4e51128452c3252acd90ed106,Attitude,39,0,att-filler1,NULL,informativity,1
1586103395,251375b4e51128452c3252acd90ed106,Attitude,39,0,att-filler1,NULL,interest,1
1586103395,251375b4e51128452c3252acd90ed106,Attitude,39,0,att-filler1,NULL,clarity,7
1586103395,251375b4e51128452c3252acd90ed106,Attitude,40,0,att-filler2,NULL,quality,2
1586103395,251375b4e51128452c3252acd90ed106,Attitude,40,0,att-filler2,NULL,likability,3
1586103395,251375b4e51128452c3252acd90ed106,Attitude,40,0,att-filler2,NULL,informativity,1
1586103395,251375b4e51128452c3252acd90ed106,Attitude,40,0,att-filler2,NULL,interest,1
1586103395,251375b4e51128452c3252acd90ed106,Attitude,40,0,att-filler2,NULL,clarity,7
1586103395,251375b4e51128452c3252acd90ed106,Attitude,38,0,att-item4,NULL,quality,2
1586103395,251375b4e51128452c3252acd90ed106,Attitude,38,0,att-item4,NULL,likability,3
1586103395,251375b4e51128452c3252acd90ed106,Attitude,38,0,att-item4,NULL,informativity,1
1586103395,251375b4e51128452c3252acd90ed106,Attitude,38,0,att-item4,NULL,interest,1
1586103395,251375b4e51128452c3252acd90ed106,Attitude,38,0,att-item4,NULL,clarity,4
#
# Results on Sunday April 05 2020 19:31:42 UTC.
# USER AGENT: Mozilla/5.0 (Linux; Android 9; FP3 Build/8901.2.A.0111.20200131) AppleWebKit/537.36 (KHTML, like Gecko) Chrome/69.0.3497.128 Mobile Safari/537.36 (Ecosia android@69.0.3497.128)
# Design number was non-random = 11
#
# Columns below this comment are as follows:
# 1. Time results were received.
# 2. MD5 hash of participant's IP address.
# 3. Controller name.
# 4. Item number.
# 5. Element number.
# 6. Type.
# 7. Group.
# 8. Field name.
# 9. Field value.
1586115103,5b075e741fe1560fd040e9f350ea3d35,Form,0,0,intro,NULL,age,19
1586115103,5b075e741fe1560fd040e9f350ea3d35,Form,0,0,intro,NULL,consent,yes
1586115103,5b075e741fe1560fd040e9f350ea3d35,Form,0,0,intro,NULL,language,English
1586115103,5b075e741fe1560fd040e9f350ea3d35,Form,17,0,filler-i1,NULL,read,yes
1586115103,5b075e741fe1560fd040e9f350ea3d35,Form,4,0,exp-pas-dis-item1,1,read,yes
1586115103,5b075e741fe1560fd040e9f350ea3d35,Form,15,0,exp-pas-no-item4,4,read,yes
1586115103,5b075e741fe1560fd040e9f350ea3d35,Form,5,0,exp-act-no-item2,2,read,yes
1586115103,5b075e741fe1560fd040e9f350ea3d35,Form,10,0,exp-act-dis-item3,3,read,yes
1586115103,5b075e741fe1560fd040e9f350ea3d35,Form,18,0,filler-i2,NULL,read,yes
1586115103,5b075e741fe1560fd040e9f350ea3d35,Form,19,0,filler-i3,NULL,read,yes
1586115103,5b075e741fe1560fd040e9f350ea3d35,Form,21,0,recall,NULL,filler1,Mixe tout vos aliments
1586115103,5b075e741fe1560fd040e9f350ea3d35,Form,21,0,recall,NULL,item1,Capture fidelement vos moments
1586115103,5b075e741fe1560fd040e9f350ea3d35,Form,21,0,recall,NULL,item2,Jusqu'à la dernière goutte garantie
1586115103,5b075e741fe1560fd040e9f350ea3d35,Form,21,0,recall,NULL,item3,
1586115103,5b075e741fe1560fd040e9f350ea3d35,Form,21,0,recall,NULL,item4,
1586115103,5b075e741fe1560fd040e9f350ea3d35,Form,21,0,recall,NULL,filler2,
# Columns below this comment are as follows:
# 1. Time results were received.
# 2. MD5 hash of participant's IP address.
# 3. Controller name.
# 4. Item number.
# 5. Element number.
# 6. Type.
# 7. Group.
# 8. Question (NULL if none).
# 9. Answer.
# 10. Whether or not answer was correct (NULL if N/A).
# 11. Time taken to answer.
1586115103,5b075e741fe1560fd040e9f350ea3d35,Question,24,0,compr-item3,NULL,Quel &eacute;tait le sens du slogan pour l'<b>imprimante</b> ?,Le r&eacute;sultat ressemble de pr&egrave;s &agrave; vos id&eacute;es.,1,7131
1586115103,5b075e741fe1560fd040e9f350ea3d35,Question,25,0,compr-item4,NULL,Quel &eacute;tait le sens du slogan pour le <b>v&eacute;lo</b> ?,Ce v&eacute;lo l’emporte sur les autres avec solidit&eacute;.,1,7679
1586115103,5b075e741fe1560fd040e9f350ea3d35,Question,23,0,compr-item2,NULL,Quel &eacute;tait le sens du slogan pour le <b>filtre &agrave; eau</b> ?,Cet appareil porte la digne responsabilit&eacute; de l’eau filtr&eacute;.,1,13107
1586115103,5b075e741fe1560fd040e9f350ea3d35,Question,27,0,compr-filler2,NULL,Quel &eacute;tait le sens du slogan pour l'<b>ordinateur portable</b> ?,Gr&acirc;ce &agrave; cet appareil%2C vous serez performant et rapide.,1,7793
1586115103,5b075e741fe1560fd040e9f350ea3d35,Question,22,0,compr-item1,NULL,Quel &eacute;tait le sens du slogan pour l'<b>appareil photo</b> ?,Cet appareil assure la p&eacute;rennit&eacute; des moment immortalis&eacute;s.,1,17932
1586115103,5b075e741fe1560fd040e9f350ea3d35,Question,26,0,compr-filler1,NULL,Quel &eacute;tait le sens du slogan pour le <b>mixeur</b> ?,Cet appareil a de multiples fonctions.,0,5370
1586115103,5b075e741fe1560fd040e9f350ea3d35,Question,28,0,distractor,NULL,Quel est le nombre maximal de mammif&egrave;res marins visibles en m&ecirc;me temps sur un plan de la vid&eacute;o?,Quatre,NULL,7503
1586115103,5b075e741fe1560fd040e9f350ea3d35,Question,30,0,syn-item2,NULL,Quel &eacute;tait le slogan pour le <b>filtre &agrave; eau</b> ?,Evpure garantit fi&egrave;rement chaque goutte.,NULL,17463
1586115103,5b075e741fe1560fd040e9f350ea3d35,Question,34,0,syn-filler2,NULL,Quel &eacute;tait le slogan pour l'<b>ordinateur portable</b> ?,Avec Protop%2C travaillez dynamiquement et efficacement.,NULL,10594
1586115103,5b075e741fe1560fd040e9f350ea3d35,Question,31,0,syn-item3,NULL,Quel &eacute;tait le slogan pour l'<b>imprimante</b> ?,Comtech reproduit pr&eacute;cis&eacute;ment vos pens&eacute;es.,NULL,8781
1586115103,5b075e741fe1560fd040e9f350ea3d35,Question,29,0,syn-item1,NULL,Quel &eacute;tait le slogan pour l'<b>appareil photo</b> ?,Visadel conserve pr&eacute;cieusement vos souvenirs.,NULL,7558
1586115103,5b075e741fe1560fd040e9f350ea3d35,Question,32,0,syn-item4,NULL,Quel &eacute;tait le slogan pour le <b>v&eacute;lo</b> ?,La comp&eacute;tition%2C elle est robustement conquise par Dynaflex.,NULL,10987
1586115103,5b075e741fe1560fd040e9f350ea3d35,Question,33,0,syn-filler1,NULL,Quel &eacute;tait le slogan pour le <b>mixeur</b> ?,Tout est mis dedans%2C et Mixtra fait le reste.,NULL,9214
# Columns below this comment are as follows:
# 1. Time results were received.
# 2. MD5 hash of participant's IP address.
# 3. Controller name.
# 4. Item number.
# 5. Element number.
# 6. Type.
# 7. Group.
# 8. Field name.
# 9. Field value.
1586115103,5b075e741fe1560fd040e9f350ea3d35,Attitude,41,0,att-filler3,NULL,quality,5
1586115103,5b075e741fe1560fd040e9f350ea3d35,Attitude,41,0,att-filler3,NULL,likability,7
1586115103,5b075e741fe1560fd040e9f350ea3d35,Attitude,41,0,att-filler3,NULL,informativity,1
1586115103,5b075e741fe1560fd040e9f350ea3d35,Attitude,41,0,att-filler3,NULL,interest,5
1586115103,5b075e741fe1560fd040e9f350ea3d35,Attitude,41,0,att-filler3,NULL,clarity,6
1586115103,5b075e741fe1560fd040e9f350ea3d35,Attitude,39,0,att-filler1,NULL,quality,7
1586115103,5b075e741fe1560fd040e9f350ea3d35,Attitude,39,0,att-filler1,NULL,likability,7
1586115103,5b075e741fe1560fd040e9f350ea3d35,Attitude,39,0,att-filler1,NULL,informativity,1
1586115103,5b075e741fe1560fd040e9f350ea3d35,Attitude,39,0,att-filler1,NULL,interest,5
1586115103,5b075e741fe1560fd040e9f350ea3d35,Attitude,39,0,att-filler1,NULL,clarity,2
1586115103,5b075e741fe1560fd040e9f350ea3d35,Attitude,35,0,att-item1,NULL,quality,7
1586115103,5b075e741fe1560fd040e9f350ea3d35,Attitude,35,0,att-item1,NULL,likability,7
1586115103,5b075e741fe1560fd040e9f350ea3d35,Attitude,35,0,att-item1,NULL,informativity,1
1586115103,5b075e741fe1560fd040e9f350ea3d35,Attitude,35,0,att-item1,NULL,interest,5
1586115103,5b075e741fe1560fd040e9f350ea3d35,Attitude,35,0,att-item1,NULL,clarity,3
1586115103,5b075e741fe1560fd040e9f350ea3d35,Attitude,36,0,att-item2,NULL,quality,7
1586115103,5b075e741fe1560fd040e9f350ea3d35,Attitude,36,0,att-item2,NULL,likability,7
1586115103,5b075e741fe1560fd040e9f350ea3d35,Attitude,36,0,att-item2,NULL,informativity,1
1586115103,5b075e741fe1560fd040e9f350ea3d35,Attitude,36,0,att-item2,NULL,interest,5
1586115103,5b075e741fe1560fd040e9f350ea3d35,Attitude,36,0,att-item2,NULL,clarity,3
1586115103,5b075e741fe1560fd040e9f350ea3d35,Attitude,37,0,att-item3,NULL,quality,1
1586115103,5b075e741fe1560fd040e9f350ea3d35,Attitude,37,0,att-item3,NULL,likability,1
1586115103,5b075e741fe1560fd040e9f350ea3d35,Attitude,37,0,att-item3,NULL,informativity,1
1586115103,5b075e741fe1560fd040e9f350ea3d35,Attitude,37,0,att-item3,NULL,interest,1
1586115103,5b075e741fe1560fd040e9f350ea3d35,Attitude,37,0,att-item3,NULL,clarity,1
1586115103,5b075e741fe1560fd040e9f350ea3d35,Attitude,38,0,att-item4,NULL,quality,4
1586115103,5b075e741fe1560fd040e9f350ea3d35,Attitude,38,0,att-item4,NULL,likability,3
1586115103,5b075e741fe1560fd040e9f350ea3d35,Attitude,38,0,att-item4,NULL,informativity,3
1586115103,5b075e741fe1560fd040e9f350ea3d35,Attitude,38,0,att-item4,NULL,interest,3
1586115103,5b075e741fe1560fd040e9f350ea3d35,Attitude,38,0,att-item4,NULL,clarity,3
1586115103,5b075e741fe1560fd040e9f350ea3d35,Attitude,40,0,att-filler2,NULL,quality,3
1586115103,5b075e741fe1560fd040e9f350ea3d35,Attitude,40,0,att-filler2,NULL,likability,3
1586115103,5b075e741fe1560fd040e9f350ea3d35,Attitude,40,0,att-filler2,NULL,informativity,3
1586115103,5b075e741fe1560fd040e9f350ea3d35,Attitude,40,0,att-filler2,NULL,interest,3
1586115103,5b075e741fe1560fd040e9f350ea3d35,Attitude,40,0,att-filler2,NULL,clarity,3
#
# Results on Sunday April 05 2020 19:41:31 UTC.
# USER AGENT: Mozilla/5.0 (X11; Ubuntu; Linux x86_64; rv:74.0) Gecko/20100101 Firefox/74.0
# Design number was non-random = 12
#
# Columns below this comment are as follows:
# 1. Time results were received.
# 2. MD5 hash of participant's IP address.
# 3. Controller name.
# 4. Item number.
# 5. Element number.
# 6. Type.
# 7. Group.
# 8. Field name.
# 9. Field value.
1586115692,63cc4ec52e7f335b06a87f4087dc9610,Form,0,0,intro,NULL,age,23
1586115692,63cc4ec52e7f335b06a87f4087dc9610,Form,0,0,intro,NULL,consent,yes
1586115692,63cc4ec52e7f335b06a87f4087dc9610,Form,0,0,intro,NULL,language,English
1586115692,63cc4ec52e7f335b06a87f4087dc9610,Form,17,0,filler-i1,NULL,read,yes
1586115692,63cc4ec52e7f335b06a87f4087dc9610,Form,6,0,exp-act-dis-item2,2,read,yes
1586115692,63cc4ec52e7f335b06a87f4087dc9610,Form,11,0,exp-pas-no-item3,3,read,yes
1586115692,63cc4ec52e7f335b06a87f4087dc9610,Form,1,0,exp-act-no-item1,1,read,yes
1586115692,63cc4ec52e7f335b06a87f4087dc9610,Form,16,0,exp-pas-dis-item4,4,read,yes
1586115692,63cc4ec52e7f335b06a87f4087dc9610,Form,18,0,filler-i2,NULL,read,yes
1586115692,63cc4ec52e7f335b06a87f4087dc9610,Form,19,0,filler-i3,NULL,read,yes
1586115692,63cc4ec52e7f335b06a87f4087dc9610,Form,21,0,recall,NULL,filler1,Mettez les ingrédients...
1586115692,63cc4ec52e7f335b06a87f4087dc9610,Form,21,0,recall,NULL,item1,Photnix mémorise vos souvenirs
1586115692,63cc4ec52e7f335b06a87f4087dc9610,Form,21,0,recall,NULL,item2,Evpure garantit chaque goutte.
1586115692,63cc4ec52e7f335b06a87f4087dc9610,Form,21,0,recall,NULL,item3,Machintruc reproduit vos pensées.
1586115692,63cc4ec52e7f335b06a87f4087dc9610,Form,21,0,recall,NULL,item4,La compétition c'est toujours gagnant avec Dynaflex.
1586115692,63cc4ec52e7f335b06a87f4087dc9610,Form,21,0,recall,NULL,filler2,?
# Columns below this comment are as follows:
# 1. Time results were received.
# 2. MD5 hash of participant's IP address.
# 3. Controller name.
# 4. Item number.
# 5. Element number.
# 6. Type.
# 7. Group.
# 8. Question (NULL if none).
# 9. Answer.
# 10. Whether or not answer was correct (NULL if N/A).
# 11. Time taken to answer.
1586115692,63cc4ec52e7f335b06a87f4087dc9610,Question,23,0,compr-item2,NULL,Quel &eacute;tait le sens du slogan pour le <b>filtre &agrave; eau</b> ?,Cet appareil porte la digne responsabilit&eacute; de l’eau filtr&eacute;.,1,18886
1586115692,63cc4ec52e7f335b06a87f4087dc9610,Question,27,0,compr-filler2,NULL,Quel &eacute;tait le sens du slogan pour l'<b>ordinateur portable</b> ?,Gr&acirc;ce &agrave; cet appareil%2C vous pourrez travailler partout.,0,5673
1586115692,63cc4ec52e7f335b06a87f4087dc9610,Question,22,0,compr-item1,NULL,Quel &eacute;tait le sens du slogan pour l'<b>appareil photo</b> ?,Cet appareil assure la p&eacute;rennit&eacute; des moment immortalis&eacute;s.,1,5984
1586115692,63cc4ec52e7f335b06a87f4087dc9610,Question,25,0,compr-item4,NULL,Quel &eacute;tait le sens du slogan pour le <b>v&eacute;lo</b> ?,Ce v&eacute;lo compense son poids par une vitesse accrue.,0,7989
1586115692,63cc4ec52e7f335b06a87f4087dc9610,Question,26,0,compr-filler1,NULL,Quel &eacute;tait le sens du slogan pour le <b>mixeur</b> ?,Cet appareil demande peu de travail en plus.,1,7941
1586115692,63cc4ec52e7f335b06a87f4087dc9610,Question,24,0,compr-item3,NULL,Quel &eacute;tait le sens du slogan pour l'<b>imprimante</b> ?,Le r&eacute;sultat ressemble de pr&egrave;s &agrave; vos id&eacute;es.,1,6188
1586115692,63cc4ec52e7f335b06a87f4087dc9610,Question,28,0,distractor,NULL,Quel est le nombre maximal de mammif&egrave;res marins visibles en m&ecirc;me temps sur un plan de la vid&eacute;o?,Quatre,NULL,7845
1586115692,63cc4ec52e7f335b06a87f4087dc9610,Question,31,0,syn-item3,NULL,Quel &eacute;tait le slogan pour l'<b>imprimante</b> ?,Comtech reproduit pr&eacute;cis&eacute;ment vos pens&eacute;es.,NULL,5504
1586115692,63cc4ec52e7f335b06a87f4087dc9610,Question,32,0,syn-item4,NULL,Quel &eacute;tait le slogan pour le <b>v&eacute;lo</b> ?,La comp&eacute;tition%2C elle est robustement conquise par Dynaflex.,NULL,3398
1586115692,63cc4ec52e7f335b06a87f4087dc9610,Question,33,0,syn-filler1,NULL,Quel &eacute;tait le slogan pour le <b>mixeur</b> ?,Je mets tout dedans%2C et Mixtra fait le reste.,NULL,5215
1586115692,63cc4ec52e7f335b06a87f4087dc9610,Question,34,0,syn-filler2,NULL,Quel &eacute;tait le slogan pour l'<b>ordinateur portable</b> ?,Travaillez dynamiquement et efficacement avec Protop.,NULL,6897
1586115692,63cc4ec52e7f335b06a87f4087dc9610,Question,30,0,syn-item2,NULL,Quel &eacute;tait le slogan pour le <b>filtre &agrave; eau</b> ?,Evpure garantit fi&egrave;rement chaque goutte.,NULL,3098
1586115692,63cc4ec52e7f335b06a87f4087dc9610,Question,29,0,syn-item1,NULL,Quel &eacute;tait le slogan pour l'<b>appareil photo</b> ?,Vos souvenirs sont pr&eacute;cieusement conserv&eacute;s par Visadel.,NULL,19519
# Columns below this comment are as follows:
# 1. Time results were received.
# 2. MD5 hash of participant's IP address.
# 3. Controller name.
# 4. Item number.
# 5. Element number.
# 6. Type.
# 7. Group.
# 8. Field name.
# 9. Field value.
1586115692,63cc4ec52e7f335b06a87f4087dc9610,Attitude,41,0,att-filler3,NULL,quality,4
1586115692,63cc4ec52e7f335b06a87f4087dc9610,Attitude,41,0,att-filler3,NULL,likability,4
1586115692,63cc4ec52e7f335b06a87f4087dc9610,Attitude,41,0,att-filler3,NULL,informativity,1
1586115692,63cc4ec52e7f335b06a87f4087dc9610,Attitude,41,0,att-filler3,NULL,interest,1
1586115692,63cc4ec52e7f335b06a87f4087dc9610,Attitude,41,0,att-filler3,NULL,clarity,4
1586115692,63cc4ec52e7f335b06a87f4087dc9610,Attitude,39,0,att-filler1,NULL,quality,4
1586115692,63cc4ec52e7f335b06a87f4087dc9610,Attitude,39,0,att-filler1,NULL,likability,4
1586115692,63cc4ec52e7f335b06a87f4087dc9610,Attitude,39,0,att-filler1,NULL,informativity,4
1586115692,63cc4ec52e7f335b06a87f4087dc9610,Attitude,39,0,att-filler1,NULL,interest,4
1586115692,63cc4ec52e7f335b06a87f4087dc9610,Attitude,39,0,att-filler1,NULL,clarity,4
1586115692,63cc4ec52e7f335b06a87f4087dc9610,Attitude,38,0,att-item4,NULL,quality,4
1586115692,63cc4ec52e7f335b06a87f4087dc9610,Attitude,38,0,att-item4,NULL,likability,4
1586115692,63cc4ec52e7f335b06a87f4087dc9610,Attitude,38,0,att-item4,NULL,informativity,4
1586115692,63cc4ec52e7f335b06a87f4087dc9610,Attitude,38,0,att-item4,NULL,interest,4
1586115692,63cc4ec52e7f335b06a87f4087dc9610,Attitude,38,0,att-item4,NULL,clarity,4
1586115692,63cc4ec52e7f335b06a87f4087dc9610,Attitude,35,0,att-item1,NULL,quality,4
1586115692,63cc4ec52e7f335b06a87f4087dc9610,Attitude,35,0,att-item1,NULL,likability,4
1586115692,63cc4ec52e7f335b06a87f4087dc9610,Attitude,35,0,att-item1,NULL,informativity,4
1586115692,63cc4ec52e7f335b06a87f4087dc9610,Attitude,35,0,att-item1,NULL,interest,4
1586115692,63cc4ec52e7f335b06a87f4087dc9610,Attitude,35,0,att-item1,NULL,clarity,4
1586115692,63cc4ec52e7f335b06a87f4087dc9610,Attitude,37,0,att-item3,NULL,quality,4
1586115692,63cc4ec52e7f335b06a87f4087dc9610,Attitude,37,0,att-item3,NULL,likability,5
1586115692,63cc4ec52e7f335b06a87f4087dc9610,Attitude,37,0,att-item3,NULL,informativity,3
1586115692,63cc4ec52e7f335b06a87f4087dc9610,Attitude,37,0,att-item3,NULL,interest,4
1586115692,63cc4ec52e7f335b06a87f4087dc9610,Attitude,37,0,att-item3,NULL,clarity,4
1586115692,63cc4ec52e7f335b06a87f4087dc9610,Attitude,40,0,att-filler2,NULL,quality,4
1586115692,63cc4ec52e7f335b06a87f4087dc9610,Attitude,40,0,att-filler2,NULL,likability,7
1586115692,63cc4ec52e7f335b06a87f4087dc9610,Attitude,40,0,att-filler2,NULL,informativity,4
1586115692,63cc4ec52e7f335b06a87f4087dc9610,Attitude,40,0,att-filler2,NULL,interest,4
1586115692,63cc4ec52e7f335b06a87f4087dc9610,Attitude,40,0,att-filler2,NULL,clarity,4
1586115692,63cc4ec52e7f335b06a87f4087dc9610,Attitude,36,0,att-item2,NULL,quality,6
1586115692,63cc4ec52e7f335b06a87f4087dc9610,Attitude,36,0,att-item2,NULL,likability,7
1586115692,63cc4ec52e7f335b06a87f4087dc9610,Attitude,36,0,att-item2,NULL,informativity,4
1586115692,63cc4ec52e7f335b06a87f4087dc9610,Attitude,36,0,att-item2,NULL,interest,5
1586115692,63cc4ec52e7f335b06a87f4087dc9610,Attitude,36,0,att-item2,NULL,clarity,3
#
# Results on Sunday April 05 2020 19:49:07 UTC.
# USER AGENT: Mozilla/5.0 (Windows NT 10.0; Win64; x64; rv:74.0) Gecko/20100101 Firefox/74.0
# Design number was non-random = 13
#
# Columns below this comment are as follows:
# 1. Time results were received.
# 2. MD5 hash of participant's IP address.
# 3. Controller name.
# 4. Item number.
# 5. Element number.
# 6. Type.
# 7. Group.
# 8. Field name.
# 9. Field value.
1586116148,6f159f25f3ef20d69ea4d3bdb6970e2a,Form,0,0,intro,NULL,age,21
1586116148,6f159f25f3ef20d69ea4d3bdb6970e2a,Form,0,0,intro,NULL,consent,yes
1586116148,6f159f25f3ef20d69ea4d3bdb6970e2a,Form,0,0,intro,NULL,language,English
1586116148,6f159f25f3ef20d69ea4d3bdb6970e2a,Form,17,0,filler-i1,NULL,read,yes
1586116148,6f159f25f3ef20d69ea4d3bdb6970e2a,Form,7,0,exp-pas-no-item2,2,read,yes
1586116148,6f159f25f3ef20d69ea4d3bdb6970e2a,Form,2,0,exp-act-dis-item1,1,read,yes
1586116148,6f159f25f3ef20d69ea4d3bdb6970e2a,Form,13,0,exp-act-no-item4,4,read,yes
1586116148,6f159f25f3ef20d69ea4d3bdb6970e2a,Form,12,0,exp-pas-dis-item3,3,read,yes
1586116148,6f159f25f3ef20d69ea4d3bdb6970e2a,Form,18,0,filler-i2,NULL,read,yes
1586116148,6f159f25f3ef20d69ea4d3bdb6970e2a,Form,19,0,filler-i3,NULL,read,yes
1586116148,6f159f25f3ef20d69ea4d3bdb6970e2a,Form,21,0,recall,NULL,filler1,Vous appuyez et il fait le reste
1586116148,6f159f25f3ef20d69ea4d3bdb6970e2a,Form,21,0,recall,NULL,item1,
1586116148,6f159f25f3ef20d69ea4d3bdb6970e2a,Form,21,0,recall,NULL,item2,Juste une goutte ? 
1586116148,6f159f25f3ef20d69ea4d3bdb6970e2a,Form,21,0,recall,NULL,item3,Vos pensées seront reproduites
1586116148,6f159f25f3ef20d69ea4d3bdb6970e2a,Form,21,0,recall,NULL,item4,Robustesse conquiert quelque chose
1586116148,6f159f25f3ef20d69ea4d3bdb6970e2a,Form,21,0,recall,NULL,filler2,protop
# Columns below this comment are as follows:
# 1. Time results were received.
# 2. MD5 hash of participant's IP address.
# 3. Controller name.
# 4. Item number.
# 5. Element number.
# 6. Type.
# 7. Group.
# 8. Question (NULL if none).
# 9. Answer.
# 10. Whether or not answer was correct (NULL if N/A).
# 11. Time taken to answer.
1586116148,6f159f25f3ef20d69ea4d3bdb6970e2a,Question,23,0,compr-item2,NULL,Quel &eacute;tait le sens du slogan pour le <b>filtre &agrave; eau</b> ?,Cet appareil abaisse drastiquement le temps de filtrage.,0,9184
1586116148,6f159f25f3ef20d69ea4d3bdb6970e2a,Question,24,0,compr-item3,NULL,Quel &eacute;tait le sens du slogan pour l'<b>imprimante</b> ?,Le r&eacute;sultat ressemble de pr&egrave;s &agrave; vos id&eacute;es.,1,6758
1586116148,6f159f25f3ef20d69ea4d3bdb6970e2a,Question,22,0,compr-item1,NULL,Quel &eacute;tait le sens du slogan pour l'<b>appareil photo</b> ?,Cet appareil est muni d’un syst&egrave;me performant de capture d’image.,0,4762
1586116148,6f159f25f3ef20d69ea4d3bdb6970e2a,Question,26,0,compr-filler1,NULL,Quel &eacute;tait le sens du slogan pour le <b>mixeur</b> ?,Cet appareil demande peu de travail en plus.,1,4772
1586116148,6f159f25f3ef20d69ea4d3bdb6970e2a,Question,27,0,compr-filler2,NULL,Quel &eacute;tait le sens du slogan pour l'<b>ordinateur portable</b> ?,Gr&acirc;ce &agrave; cet appareil%2C vous serez performant et rapide.,1,5919
1586116148,6f159f25f3ef20d69ea4d3bdb6970e2a,Question,25,0,compr-item4,NULL,Quel &eacute;tait le sens du slogan pour le <b>v&eacute;lo</b> ?,Ce v&eacute;lo l’emporte sur les autres avec solidit&eacute;.,1,5960
1586116148,6f159f25f3ef20d69ea4d3bdb6970e2a,Question,28,0,distractor,NULL,Quel est le nombre maximal de mammif&egrave;res marins visibles en m&ecirc;me temps sur un plan de la vid&eacute;o?,Quatre,NULL,7409
1586116148,6f159f25f3ef20d69ea4d3bdb6970e2a,Question,31,0,syn-item3,NULL,Quel &eacute;tait le slogan pour l'<b>imprimante</b> ?,Vos pens&eacute;es sont pr&eacute;cis&eacute;ment reproduites par Comtech.,NULL,9996
1586116148,6f159f25f3ef20d69ea4d3bdb6970e2a,Question,34,0,syn-filler2,NULL,Quel &eacute;tait le slogan pour l'<b>ordinateur portable</b> ?,Travaillez efficacement et dynamiquement avec Protop.,NULL,6446
1586116148,6f159f25f3ef20d69ea4d3bdb6970e2a,Question,29,0,syn-item1,NULL,Quel &eacute;tait le slogan pour l'<b>appareil photo</b> ?,Visadel conserve pr&eacute;cieusement vos souvenirs.,NULL,5796
1586116148,6f159f25f3ef20d69ea4d3bdb6970e2a,Question,33,0,syn-filler1,NULL,Quel &eacute;tait le slogan pour le <b>mixeur</b> ?,Je mets tout dedans%2C et Mixtra fait le reste.,NULL,5350
1586116148,6f159f25f3ef20d69ea4d3bdb6970e2a,Question,32,0,syn-item4,NULL,Quel &eacute;tait le slogan pour le <b>v&eacute;lo</b> ?,Dynaflex conquiert robustement la comp&eacute;tition.,NULL,8162
1586116148,6f159f25f3ef20d69ea4d3bdb6970e2a,Question,30,0,syn-item2,NULL,Quel &eacute;tait le slogan pour le <b>filtre &agrave; eau</b> ?,Chaque goutte est fi&egrave;rement garantie par Evpure.,NULL,7442
# Columns below this comment are as follows:
# 1. Time results were received.
# 2. MD5 hash of participant's IP address.
# 3. Controller name.
# 4. Item number.
# 5. Element number.
# 6. Type.
# 7. Group.
# 8. Field name.
# 9. Field value.
1586116148,6f159f25f3ef20d69ea4d3bdb6970e2a,Attitude,40,0,att-filler2,NULL,quality,4
1586116148,6f159f25f3ef20d69ea4d3bdb6970e2a,Attitude,40,0,att-filler2,NULL,likability,4
1586116148,6f159f25f3ef20d69ea4d3bdb6970e2a,Attitude,40,0,att-filler2,NULL,informativity,4
1586116148,6f159f25f3ef20d69ea4d3bdb6970e2a,Attitude,40,0,att-filler2,NULL,interest,4
1586116148,6f159f25f3ef20d69ea4d3bdb6970e2a,Attitude,40,0,att-filler2,NULL,clarity,4
1586116148,6f159f25f3ef20d69ea4d3bdb6970e2a,Attitude,35,0,att-item1,NULL,quality,4
1586116148,6f159f25f3ef20d69ea4d3bdb6970e2a,Attitude,35,0,att-item1,NULL,likability,4
1586116148,6f159f25f3ef20d69ea4d3bdb6970e2a,Attitude,35,0,att-item1,NULL,informativity,4
1586116148,6f159f25f3ef20d69ea4d3bdb6970e2a,Attitude,35,0,att-item1,NULL,interest,4
1586116148,6f159f25f3ef20d69ea4d3bdb6970e2a,Attitude,35,0,att-item1,NULL,clarity,4
1586116148,6f159f25f3ef20d69ea4d3bdb6970e2a,Attitude,36,0,att-item2,NULL,quality,3
1586116148,6f159f25f3ef20d69ea4d3bdb6970e2a,Attitude,36,0,att-item2,NULL,likability,3
1586116148,6f159f25f3ef20d69ea4d3bdb6970e2a,Attitude,36,0,att-item2,NULL,informativity,3
1586116148,6f159f25f3ef20d69ea4d3bdb6970e2a,Attitude,36,0,att-item2,NULL,interest,3
1586116148,6f159f25f3ef20d69ea4d3bdb6970e2a,Attitude,36,0,att-item2,NULL,clarity,1
1586116148,6f159f25f3ef20d69ea4d3bdb6970e2a,Attitude,37,0,att-item3,NULL,quality,4
1586116148,6f159f25f3ef20d69ea4d3bdb6970e2a,Attitude,37,0,att-item3,NULL,likability,2
1586116148,6f159f25f3ef20d69ea4d3bdb6970e2a,Attitude,37,0,att-item3,NULL,informativity,3
1586116148,6f159f25f3ef20d69ea4d3bdb6970e2a,Attitude,37,0,att-item3,NULL,interest,5
1586116148,6f159f25f3ef20d69ea4d3bdb6970e2a,Attitude,37,0,att-item3,NULL,clarity,6
1586116148,6f159f25f3ef20d69ea4d3bdb6970e2a,Attitude,39,0,att-filler1,NULL,quality,6
1586116148,6f159f25f3ef20d69ea4d3bdb6970e2a,Attitude,39,0,att-filler1,NULL,likability,5
1586116148,6f159f25f3ef20d69ea4d3bdb6970e2a,Attitude,39,0,att-filler1,NULL,informativity,5
1586116148,6f159f25f3ef20d69ea4d3bdb6970e2a,Attitude,39,0,att-filler1,NULL,interest,5
1586116148,6f159f25f3ef20d69ea4d3bdb6970e2a,Attitude,39,0,att-filler1,NULL,clarity,5
1586116148,6f159f25f3ef20d69ea4d3bdb6970e2a,Attitude,41,0,att-filler3,NULL,quality,6
1586116148,6f159f25f3ef20d69ea4d3bdb6970e2a,Attitude,41,0,att-filler3,NULL,likability,6
1586116148,6f159f25f3ef20d69ea4d3bdb6970e2a,Attitude,41,0,att-filler3,NULL,informativity,2
1586116148,6f159f25f3ef20d69ea4d3bdb6970e2a,Attitude,41,0,att-filler3,NULL,interest,3
1586116148,6f159f25f3ef20d69ea4d3bdb6970e2a,Attitude,41,0,att-filler3,NULL,clarity,6
1586116148,6f159f25f3ef20d69ea4d3bdb6970e2a,Attitude,38,0,att-item4,NULL,quality,4
1586116148,6f159f25f3ef20d69ea4d3bdb6970e2a,Attitude,38,0,att-item4,NULL,likability,4
1586116148,6f159f25f3ef20d69ea4d3bdb6970e2a,Attitude,38,0,att-item4,NULL,informativity,6
1586116148,6f159f25f3ef20d69ea4d3bdb6970e2a,Attitude,38,0,att-item4,NULL,interest,5
1586116148,6f159f25f3ef20d69ea4d3bdb6970e2a,Attitude,38,0,att-item4,NULL,clarity,6
#
# Results on Sunday April 05 2020 20:29:36 UTC.
# USER AGENT: Mozilla/5.0 (Windows NT 10.0; Win64; x64) AppleWebKit/537.36 (KHTML, like Gecko) Chrome/80.0.3987.149 Safari/537.36
# Design number was non-random = 14
#
# Columns below this comment are as follows:
# 1. Time results were received.
# 2. MD5 hash of participant's IP address.
# 3. Controller name.
# 4. Item number.
# 5. Element number.
# 6. Type.
# 7. Group.
# 8. Field name.
# 9. Field value.
1586118577,7c99478253d22ad2e12df0bd96a66204,Form,0,0,intro,NULL,age,21
1586118577,7c99478253d22ad2e12df0bd96a66204,Form,0,0,intro,NULL,consent,yes
1586118577,7c99478253d22ad2e12df0bd96a66204,Form,0,0,intro,NULL,language,English
1586118577,7c99478253d22ad2e12df0bd96a66204,Form,17,0,filler-i1,NULL,read,yes
1586118577,7c99478253d22ad2e12df0bd96a66204,Form,3,0,exp-pas-no-item1,1,read,yes
1586118577,7c99478253d22ad2e12df0bd96a66204,Form,14,0,exp-act-dis-item4,4,read,yes
1586118577,7c99478253d22ad2e12df0bd96a66204,Form,9,0,exp-act-no-item3,3,read,yes
1586118577,7c99478253d22ad2e12df0bd96a66204,Form,8,0,exp-pas-dis-item2,2,read,yes
1586118577,7c99478253d22ad2e12df0bd96a66204,Form,18,0,filler-i2,NULL,read,yes
1586118577,7c99478253d22ad2e12df0bd96a66204,Form,19,0,filler-i3,NULL,read,yes
1586118577,7c99478253d22ad2e12df0bd96a66204,Form,21,0,recall,NULL,filler1,Mettez tout dedans Mixtra fera le reste
1586118577,7c99478253d22ad2e12df0bd96a66204,Form,21,0,recall,NULL,item1,capturez vos instants précieux
1586118577,7c99478253d22ad2e12df0bd96a66204,Form,21,0,recall,NULL,item2,purifiez 
1586118577,7c99478253d22ad2e12df0bd96a66204,Form,21,0,recall,NULL,item3,
1586118577,7c99478253d22ad2e12df0bd96a66204,Form,21,0,recall,NULL,item4,
1586118577,7c99478253d22ad2e12df0bd96a66204,Form,21,0,recall,NULL,filler2,travaillez avec protop
# Columns below this comment are as follows:
# 1. Time results were received.
# 2. MD5 hash of participant's IP address.
# 3. Controller name.
# 4. Item number.
# 5. Element number.
# 6. Type.
# 7. Group.
# 8. Question (NULL if none).
# 9. Answer.
# 10. Whether or not answer was correct (NULL if N/A).
# 11. Time taken to answer.
1586118577,7c99478253d22ad2e12df0bd96a66204,Question,22,0,compr-item1,NULL,Quel &eacute;tait le sens du slogan pour l'<b>appareil photo</b> ?,Cet appareil assure la p&eacute;rennit&eacute; des moment immortalis&eacute;s.,1,6772
1586118577,7c99478253d22ad2e12df0bd96a66204,Question,26,0,compr-filler1,NULL,Quel &eacute;tait le sens du slogan pour le <b>mixeur</b> ?,Cet appareil demande peu de travail en plus.,1,6525
1586118577,7c99478253d22ad2e12df0bd96a66204,Question,23,0,compr-item2,NULL,Quel &eacute;tait le sens du slogan pour le <b>filtre &agrave; eau</b> ?,Cet appareil porte la digne responsabilit&eacute; de l’eau filtr&eacute;.,1,7307
